"","timestamp","participantID","trial_no","box_ID","shape_ID","cue_ID","cueArrow_number","cueArrow_html","finalSlider_value","rt","global_ID","trial_type","cueType","dotCloud_number","slider_start_value","cued_ellipse_logAR","selected_ellipse_logAR","uncued_ellipse_logAR","response","inside_shapes","responseError","catSame"
"70","2023-01-25 21:34:07.356","725459","1","5","1","1","1","<p style=font-size: 90px;>&#x2191</p>","9","5820","vertical","ydk","1","1","18",-0.46331866,0.23165861,-0.32432321,"NULL","5",0.69497727,1
"71","2023-01-25 21:34:10.716","725459","2","1","1","1","1","<p style=font-size: 90px;>&#x2191</p>","14","1711","vertical","ydk","1","1","16",-0.13899593,-4.8e-07,-0.23165957,"NULL","1",0.13899545,1
"72","2023-01-25 21:34:14.250","725459","3","5","4","2","4","<p style=font-size: 90px;>&#x2192</p>","18","1865","horizontal","ydk","2","4","2",0.23165861,-0.18532775,0.04633134,"NULL","5",-0.41698636,1
"73","2023-01-25 21:34:19.778","725459","4","2","1","1","1","<p style=font-size: 90px;>&#x2191</p>","3","3876","vertical","ydk","1","1","20",0.23165861,0.50964952,0.32432225,"NULL","0",0.27799091,1
"74","2023-01-25 21:34:27.450","725459","5","5","3","1","3","<p style=font-size: 90px;>&#x2190</p>","7","6029","horizontal","ydk","1","3","17",0.4633177,0.32432225,0.32432225,"NULL","5",-0.13899545,1
"75","2023-01-25 21:34:31.498","725459","6","3","4","1","3","<p style=font-size: 90px;>&#x2190</p>","15","2385","horizontal","ydk","1","4","17",0.04633134,-0.0463323,0.18532679,"NULL","0",-0.09266364,1
"76","2023-01-25 21:34:35.507","725459","7","2","2","2","2","<p style=font-size: 90px;>&#x2193</p>","17","2363","vertical","ydk","2","2","24",-0.37065503,-0.13899593,-0.09266412,"NULL","1",0.2316591,1
"77","2023-01-25 21:34:39.513","725459","8","3","3","2","4","<p style=font-size: 90px;>&#x2192</p>","6","2354","horizontal","ydk","2","3","20",0.27799043,0.37065407,-0.27799139,"NULL","1",0.09266364,0
"78","2023-01-25 21:34:43.382","725459","9","5","4","2","4","<p style=font-size: 90px;>&#x2192</p>","17","2213","horizontal","ydk","2","4","19",-0.13899593,-0.13899593,0.27799043,"NULL","5",0,0
"79","2023-01-25 21:34:47.874","725459","10","3","3","2","4","<p style=font-size: 90px;>&#x2192</p>","6","2846","horizontal","ydk","2","3","19",-0.0463323,0.37065407,-0.09266412,"NULL","1",0.41698637,1
"80","2023-01-25 21:34:51.153","725459","11","5","1","2","2","<p style=font-size: 90px;>&#x2193</p>","15","1616","vertical","ydk","2","1","12",0.09266316,-0.0463323,-0.18532775,"NULL","5",-0.13899546,0
"81","2023-01-25 21:34:55.872","725459","12","5","3","1","3","<p style=font-size: 90px;>&#x2190</p>","17","3085","horizontal","ydk","1","3","5",-0.09266412,-0.13899593,-4.8e-07,"NULL","5",-0.04633181,1
"82","2023-01-25 21:35:01.025","725459","13","3","4","2","4","<p style=font-size: 90px;>&#x2192</p>","5","3499","horizontal","ydk","2","4","3",0.23165861,0.41698588,0.32432225,"NULL","0",0.18532727,1
"83","2023-01-25 21:35:06.170","725459","14","3","3","1","3","<p style=font-size: 90px;>&#x2190</p>","16","3490","horizontal","ydk","1","3","16",-0.41698684,-0.09266412,0.23165861,"NULL","1",0.32432272,0
"84","2023-01-25 21:35:09.464","725459","15","5","3","1","3","<p style=font-size: 90px;>&#x2190</p>","16","1632","horizontal","ydk","1","3","20",0.23165861,-0.09266412,0.18532679,"NULL","5",-0.32432273,1
"85","2023-01-25 21:35:12.817","725459","16","2","1","1","1","<p style=font-size: 90px;>&#x2191</p>","18","1699","vertical","ydk","1","1","7",-0.37065503,-0.18532775,-0.41698684,"NULL","0",0.18532728,1
"86","2023-01-25 21:35:15.163","725459","17","5","1","2","2","<p style=font-size: 90px;>&#x2193</p>","24","697","vertical","ydk","2","1","21",0.32432225,-0.46331866,-0.32432321,"NULL","5",-0.78764091,0
"87","2023-01-25 21:35:18.320","725459","18","4","4","2","4","<p style=font-size: 90px;>&#x2192</p>","14","1497","horizontal","ydk","2","4","7",-0.27799139,-4.8e-07,0.41698588,"NULL","1",0.27799091,0
"88","2023-01-25 21:35:20.929","725459","19","5","4","1","3","<p style=font-size: 90px;>&#x2190</p>","12","949","horizontal","ydk","1","4","1",0.04633134,0.09266316,-0.09266412,"NULL","5",0.04633182,0
"89","2023-01-25 21:35:26.439","725459","20","5","4","1","3","<p style=font-size: 90px;>&#x2190</p>","14","3852","horizontal","ydk","1","4","25",-0.32432321,-4.8e-07,-0.09266412,"NULL","5",0.32432273,1
"90","2023-01-25 21:35:30.711","725459","21","2","1","2","2","<p style=font-size: 90px;>&#x2193</p>","22","2621","vertical","ydk","2","1","6",-0.18532775,-0.37065503,-0.46331866,"NULL","0",-0.18532728,1
"91","2023-01-25 21:35:33.544","725459","22","4","4","2","4","<p style=font-size: 90px;>&#x2192</p>","18","1184","horizontal","ydk","2","4","20",-0.23165957,-0.18532775,0.18532679,"NULL","1",0.04633182,0
"92","2023-01-25 21:35:37.378","725459","23","4","3","1","3","<p style=font-size: 90px;>&#x2190</p>","17","2182","horizontal","ydk","1","3","15",-0.13899593,-0.13899593,0.4633177,"NULL","0",0,0
"93","2023-01-25 21:35:39.993","725459","24","4","4","1","3","<p style=font-size: 90px;>&#x2190</p>","17","954","horizontal","ydk","1","4","23",-4.8e-07,-0.13899593,-0.09266412,"NULL","1",-0.13899545,1
"94","2023-01-25 21:35:44.761","725459","25","4","3","1","3","<p style=font-size: 90px;>&#x2190</p>","11","3122","horizontal","ydk","1","3","6",0.32432225,0.13899498,-0.37065503,"NULL","0",-0.18532727,0
"95","2023-01-25 21:35:49.553","725459","26","1","2","1","1","<p style=font-size: 90px;>&#x2191</p>","17","3129","vertical","ydk","1","2","6",-0.0463323,-0.13899593,0.37065407,"NULL","0",-0.09266363,0
"96","2023-01-25 21:35:52.672","725459","27","2","2","1","1","<p style=font-size: 90px;>&#x2191</p>","13","1465","vertical","ydk","1","2","9",0.13899498,0.04633134,-0.13899593,"NULL","1",-0.09266364,0
"97","2023-01-25 21:35:55.600","725459","28","3","3","1","3","<p style=font-size: 90px;>&#x2190</p>","6","1271","horizontal","ydk","1","3","19",0.23165861,0.37065407,0.18532679,"NULL","1",0.13899546,1
"98","2023-01-25 21:35:59.209","725459","29","5","1","2","2","<p style=font-size: 90px;>&#x2193</p>","20","1955","vertical","ydk","2","1","23",-0.27799139,-0.27799139,0.27799043,"NULL","5",0,0
"99","2023-01-25 21:36:01.768","725459","30","4","3","1","3","<p style=font-size: 90px;>&#x2190</p>","4","898","horizontal","ydk","1","3","17",0.32432225,0.4633177,0.4633177,"NULL","0",0.13899545,1
"100","2023-01-25 21:36:04.663","725459","31","2","2","2","2","<p style=font-size: 90px;>&#x2193</p>","1","1240","vertical","ydk","2","2","10",0.41698588,0.60231412,0.41698588,"NULL","1",0.18532824,1
"101","2023-01-25 21:36:07.648","725459","32","5","2","1","1","<p style=font-size: 90px;>&#x2191</p>","15","1333","vertical","ydk","1","2","22",-0.09266412,-0.0463323,-0.32432321,"NULL","5",0.04633182,1
"102","2023-01-25 21:36:09.991","725459","33","5","1","2","2","<p style=font-size: 90px;>&#x2193</p>","18","681","vertical","ydk","2","1","8",-0.0463323,-0.18532775,0.27799043,"NULL","5",-0.13899545,0
"103","2023-01-25 21:36:12.447","725459","34","2","1","2","2","<p style=font-size: 90px;>&#x2193</p>","14","803","vertical","ydk","2","1","7",-0.0463323,-4.8e-07,0.37065407,"NULL","0",0.04633182,0
"104","2023-01-25 21:36:16.128","725459","35","5","3","1","3","<p style=font-size: 90px;>&#x2190</p>","5","2021","horizontal","ydk","1","3","16",0.23165861,0.41698588,-0.27799139,"NULL","5",0.18532727,0
"105","2023-01-25 21:36:19.123","725459","36","3","3","1","3","<p style=font-size: 90px;>&#x2190</p>","3","1341","horizontal","ydk","1","3","3",0.41698588,0.41698588,0.23165861,"NULL","1",0,1
"106","2023-01-25 21:36:22.864","725459","37","4","4","2","4","<p style=font-size: 90px;>&#x2192</p>","15","2069","horizontal","ydk","2","4","25",-0.0463323,-0.0463323,-0.18532775,"NULL","1",0,1
"107","2023-01-25 21:36:25.199","725459","38","5","4","2","4","<p style=font-size: 90px;>&#x2192</p>","17","687","horizontal","ydk","2","4","4",-0.23165957,-0.13899593,-0.27799139,"NULL","5",0.09266364,1
"108","2023-01-25 21:36:27.824","725459","39","5","1","1","1","<p style=font-size: 90px;>&#x2191</p>","14","964","vertical","ydk","1","1","13",-0.09266412,-4.8e-07,0.23165861,"NULL","5",0.09266364,0
"109","2023-01-25 21:36:31.776","725459","40","1","2","1","1","<p style=font-size: 90px;>&#x2191</p>","1","2282","vertical","ydk","1","2","3",0.41698588,0.60231412,-0.23165957,"NULL","0",0.18532824,0
"110","2023-01-25 21:36:35.302","725459","41","5","1","2","2","<p style=font-size: 90px;>&#x2193</p>","15","1885","vertical","ydk","2","1","7",0.27799043,-0.0463323,0.41698588,"NULL","5",-0.32432273,1
"111","2023-01-25 21:36:39.656","725459","42","2","2","1","1","<p style=font-size: 90px;>&#x2191</p>","14","2694","vertical","ydk","1","2","23",-0.27799139,-4.8e-07,-0.41698684,"NULL","1",0.27799091,1
"112","2023-01-25 21:36:42.680","725459","43","3","4","2","4","<p style=font-size: 90px;>&#x2192</p>","5","1366","horizontal","ydk","2","4","11",0.4633177,0.41698588,0.32432225,"NULL","0",-0.04633182,1
"113","2023-01-25 21:36:46.119","725459","44","3","3","2","4","<p style=font-size: 90px;>&#x2192</p>","22","1789","horizontal","ydk","2","3","19",-0.41698684,-0.37065503,0.37065407,"NULL","1",0.04633181,0
"114","2023-01-25 21:36:48.943","725459","45","5","4","1","3","<p style=font-size: 90px;>&#x2190</p>","3","1172","horizontal","ydk","1","4","7",-0.13899593,0.50964952,-0.09266412,"NULL","5",0.64864545,1
"115","2023-01-25 21:36:53.335","725459","46","3","3","2","4","<p style=font-size: 90px;>&#x2192</p>","16","2729","horizontal","ydk","2","3","4",-0.41698684,-0.09266412,-0.18532775,"NULL","1",0.32432272,1
"116","2023-01-25 21:36:56.384","725459","47","2","2","2","2","<p style=font-size: 90px;>&#x2193</p>","8","1380","vertical","ydk","2","2","11",0.09266316,0.27799043,-4.8e-07,"NULL","1",0.18532727,0
"117","2023-01-25 21:36:58.991","725459","48","1","1","1","1","<p style=font-size: 90px;>&#x2191</p>","15","946","vertical","ydk","1","1","20",-0.13899593,-0.0463323,0.4633177,"NULL","1",0.09266363,0
"118","2023-01-25 21:37:02.434","725459","49","5","3","2","4","<p style=font-size: 90px;>&#x2192</p>","27","1770","horizontal","ydk","2","3","7",-0.46331866,-0.60231412,-0.46331866,"NULL","5",-0.13899546,1
"119","2023-01-25 21:37:05.996","725459","50","5","2","1","1","<p style=font-size: 90px;>&#x2191</p>","3","1925","vertical","ydk","1","2","21",0.27799043,0.50964952,-0.27799139,"NULL","5",0.23165909,0
"120","2023-01-25 21:37:08.996","725459","51","2","2","2","2","<p style=font-size: 90px;>&#x2193</p>","18","1365","vertical","ydk","2","2","19",0.13899498,-0.18532775,-0.13899593,"NULL","1",-0.32432273,0
"121","2023-01-25 21:37:11.620","725459","52","3","4","2","4","<p style=font-size: 90px;>&#x2192</p>","20","988","horizontal","ydk","2","4","23",0.09266316,-0.27799139,0.37065407,"NULL","0",-0.37065455,1
"122","2023-01-25 21:37:15.172","725459","53","4","3","2","4","<p style=font-size: 90px;>&#x2192</p>","18","1925","horizontal","ydk","2","3","7",0.13899498,-0.18532775,0.27799043,"NULL","0",-0.32432273,1
"123","2023-01-25 21:37:17.588","725459","54","2","2","2","2","<p style=font-size: 90px;>&#x2193</p>","6","772","vertical","ydk","2","2","10",0.09266316,0.37065407,0.37065407,"NULL","1",0.27799091,1
"124","2023-01-25 21:37:20.132","725459","55","4","3","2","4","<p style=font-size: 90px;>&#x2192</p>","21","890","horizontal","ydk","2","3","18",-4.8e-07,-0.32432321,0.23165861,"NULL","0",-0.32432273,0
"125","2023-01-25 21:37:24.071","725459","56","3","3","2","4","<p style=font-size: 90px;>&#x2192</p>","21","2278","horizontal","ydk","2","3","6",-0.46331866,-0.32432321,-0.41698684,"NULL","1",0.13899545,1
"126","2023-01-25 21:37:27.012","725459","57","4","4","2","4","<p style=font-size: 90px;>&#x2192</p>","16","1293","horizontal","ydk","2","4","7",0.09266316,-0.09266412,-0.46331866,"NULL","1",-0.18532728,0
"127","2023-01-25 21:37:30.056","725459","58","3","4","1","3","<p style=font-size: 90px;>&#x2190</p>","3","1400","horizontal","ydk","1","4","5",0.13899498,0.50964952,0.41698588,"NULL","0",0.37065454,1
"128","2023-01-25 21:37:32.791","725459","59","2","1","1","1","<p style=font-size: 90px;>&#x2191</p>","5","1080","vertical","ydk","1","1","15",0.41698588,0.41698588,-4.8e-07,"NULL","0",0,0
"129","2023-01-25 21:37:36.646","725459","60","4","4","1","3","<p style=font-size: 90px;>&#x2190</p>","19","2194","horizontal","ydk","1","4","16",-0.0463323,-0.23165957,0.23165861,"NULL","1",-0.18532727,0
"130","2023-01-25 21:37:39.966","725459","61","5","4","1","3","<p style=font-size: 90px;>&#x2190</p>","18","1662","horizontal","ydk","1","4","18",0.18532679,-0.23165957,0.41698588,"NULL","5",-0.41698636,1
"131","2023-01-25 21:37:42.479","725459","62","2","2","1","1","<p style=font-size: 90px;>&#x2191</p>","6","848","vertical","ydk","1","2","9",0.37065407,0.37065407,0.27799043,"NULL","1",0,1
"132","2023-01-25 21:37:45.686","725459","63","4","3","1","3","<p style=font-size: 90px;>&#x2190</p>","4","1566","horizontal","ydk","1","3","13",0.27799043,0.4633177,0.09266316,"NULL","0",0.18532727,1
"133","2023-01-25 21:37:48.863","725459","64","2","1","1","1","<p style=font-size: 90px;>&#x2191</p>","18","1521","vertical","ydk","1","1","18",-0.27799139,0.4633177,-0.37065503,"NULL","0",0.74130909,1
"134","2023-01-25 21:37:51.550","725459","65","1","1","2","2","<p style=font-size: 90px;>&#x2193</p>","4","1033","vertical","ydk","2","1","2",-0.0463323,0.4633177,0.41698588,"NULL","1",0.50965,0
"135","2023-01-25 21:37:54.351","725459","66","2","2","2","2","<p style=font-size: 90px;>&#x2193</p>","8","1141","vertical","ydk","2","2","3",0.13899498,0.27799043,0.32432225,"NULL","1",0.13899545,1
"136","2023-01-25 21:37:57.239","725459","67","5","2","2","2","<p style=font-size: 90px;>&#x2193</p>","22","1234","vertical","ydk","2","2","3",-0.46331866,-0.37065503,-4.8e-07,"NULL","5",0.09266363,1
"137","2023-01-25 21:38:00.376","725459","68","4","3","1","3","<p style=font-size: 90px;>&#x2190</p>","9","1497","horizontal","ydk","1","3","15",0.32432225,0.23165861,0.41698588,"NULL","0",-0.09266364,1
"138","2023-01-25 21:38:03.223","725459","69","3","3","1","3","<p style=font-size: 90px;>&#x2190</p>","14","1205","horizontal","ydk","1","3","11",-0.23165957,-4.8e-07,-0.23165957,"NULL","1",0.23165909,1
"139","2023-01-25 21:38:06.408","725459","70","4","4","1","3","<p style=font-size: 90px;>&#x2190</p>","15","1541","horizontal","ydk","1","4","19",0.04633134,-0.0463323,0.27799043,"NULL","1",-0.09266364,1
"140","2023-01-25 21:38:10.070","725459","71","1","2","2","2","<p style=font-size: 90px;>&#x2193</p>","14","2009","vertical","ydk","2","2","7",0.09266316,-4.8e-07,-0.41698684,"NULL","0",-0.09266364,0
"141","2023-01-25 21:38:12.574","725459","72","5","1","2","2","<p style=font-size: 90px;>&#x2193</p>","13","849","vertical","ydk","2","1","10",0.04633134,0.04633134,0.13899498,"NULL","5",0,1
"142","2023-01-25 21:38:15.646","725459","73","3","4","2","4","<p style=font-size: 90px;>&#x2192</p>","4","1419","horizontal","ydk","2","4","11",0.32432225,0.4633177,-0.46331866,"NULL","0",0.13899545,0
"143","2023-01-25 21:38:18.207","725459","74","4","4","2","4","<p style=font-size: 90px;>&#x2192</p>","15","912","horizontal","ydk","2","4","22",-0.13899593,-0.0463323,0.27799043,"NULL","1",0.09266363,0
"144","2023-01-25 21:38:21.598","725459","75","1","2","1","1","<p style=font-size: 90px;>&#x2191</p>","4","1729","vertical","ydk","1","2","16",0.4633177,0.4633177,-0.0463323,"NULL","0",0,0
"145","2023-01-25 21:38:24.118","725459","76","1","2","1","1","<p style=font-size: 90px;>&#x2191</p>","5","852","vertical","ydk","1","2","22",0.4633177,0.41698588,0.4633177,"NULL","0",-0.04633182,1
"146","2023-01-25 21:38:28.126","725459","77","3","4","2","4","<p style=font-size: 90px;>&#x2192</p>","26","2349","horizontal","ydk","2","4","2",-0.46331866,-0.5559823,-0.23165957,"NULL","0",-0.09266364,1
"147","2023-01-25 21:38:30.788","725459","78","2","2","1","1","<p style=font-size: 90px;>&#x2191</p>","12","1016","vertical","ydk","1","2","17",-0.13899593,0.09266316,0.18532679,"NULL","1",0.23165909,0
"148","2023-01-25 21:38:34.022","725459","79","4","4","2","4","<p style=font-size: 90px;>&#x2192</p>","4","1581","horizontal","ydk","2","4","25",-4.8e-07,0.4633177,-0.37065503,"NULL","1",0.46331818,1
"149","2023-01-25 21:38:36.542","725459","80","3","3","1","3","<p style=font-size: 90px;>&#x2190</p>","11","861","horizontal","ydk","1","3","16",0.18532679,0.13899498,-0.32432321,"NULL","1",-0.04633181,0
"150","2023-01-25 21:38:39.590","725459","81","3","4","1","3","<p style=font-size: 90px;>&#x2190</p>","11","1385","horizontal","ydk","1","4","14",0.04633134,0.13899498,-0.18532775,"NULL","0",0.09266364,0
"151","2023-01-25 21:38:43.510","725459","82","4","3","2","4","<p style=font-size: 90px;>&#x2192</p>","17","2267","horizontal","ydk","2","3","22",-0.27799139,-0.13899593,0.13899498,"NULL","0",0.13899546,0
"152","2023-01-25 21:38:48.014","725459","83","5","3","1","3","<p style=font-size: 90px;>&#x2190</p>","24","2853","horizontal","ydk","1","3","24",-0.18532775,-0.13899593,0.13899498,"NULL","5",0.04633182,0
"153","2023-01-25 21:38:51.005","725459","84","2","2","2","2","<p style=font-size: 90px;>&#x2193</p>","5","1335","vertical","ydk","2","2","17",0.18532679,0.41698588,0.41698588,"NULL","1",0.23165909,1
"154","2023-01-25 21:38:53.692","725459","85","1","2","1","1","<p style=font-size: 90px;>&#x2191</p>","4","1029","vertical","ydk","1","2","3",0.4633177,0.4633177,0.13899498,"NULL","0",0,1
"155","2023-01-25 21:38:57.582","725459","86","2","2","1","1","<p style=font-size: 90px;>&#x2191</p>","23","2240","vertical","ydk","1","2","3",-0.46331866,-0.41698684,-4.8e-07,"NULL","1",0.04633182,1
"156","2023-01-25 21:38:59.718","725459","87","3","3","2","4","<p style=font-size: 90px;>&#x2192</p>","23","457","horizontal","ydk","2","3","16",-0.41698684,-0.41698684,0.18532679,"NULL","1",0,0
"157","2023-01-25 21:39:04.094","725459","88","5","1","1","1","<p style=font-size: 90px;>&#x2191</p>","27","2721","vertical","ydk","1","1","8",-0.23165957,-0.60231412,0.41698588,"NULL","5",-0.37065455,0
"158","2023-01-25 21:39:06.621","725459","89","5","2","1","1","<p style=font-size: 90px;>&#x2191</p>","25","884","vertical","ydk","1","2","9",-0.27799139,-0.50965048,-0.23165957,"NULL","5",-0.23165909,1
"159","2023-01-25 21:39:09.941","725459","90","1","2","1","1","<p style=font-size: 90px;>&#x2191</p>","25","1665","vertical","ydk","1","2","14",0.09266316,-0.50965048,-0.13899593,"NULL","0",-0.60231364,0
"160","2023-01-25 21:39:12.830","725459","91","5","4","1","3","<p style=font-size: 90px;>&#x2190</p>","21","1237","horizontal","ydk","1","4","19",-0.46331866,-0.32432321,-0.09266412,"NULL","5",0.13899545,1
"161","2023-01-25 21:39:16.645","725459","92","5","2","1","1","<p style=font-size: 90px;>&#x2191</p>","13","2162","vertical","ydk","1","2","7",-0.09266412,0.04633134,0.37065407,"NULL","5",0.13899546,0
"162","2023-01-25 21:39:19.757","725459","93","1","2","1","1","<p style=font-size: 90px;>&#x2191</p>","9","1462","vertical","ydk","1","2","9",0.23165861,0.04633134,-0.37065503,"NULL","0",-0.18532727,0
"163","2023-01-25 21:39:22.333","725459","94","4","3","2","4","<p style=font-size: 90px;>&#x2192</p>","17","916","horizontal","ydk","2","3","22",-4.8e-07,-0.13899593,-0.13899593,"NULL","0",-0.13899545,1
"164","2023-01-25 21:39:25.269","725459","95","4","3","2","4","<p style=font-size: 90px;>&#x2192</p>","14","1281","horizontal","ydk","2","3","10",0.32432225,-4.8e-07,0.04633134,"NULL","0",-0.32432273,1
"165","2023-01-25 21:39:28.021","725459","96","5","1","2","2","<p style=font-size: 90px;>&#x2193</p>","14","1089","vertical","ydk","2","1","20",0.37065407,-4.8e-07,0.13899498,"NULL","5",-0.37065455,1
"166","2023-01-25 21:39:31.293","725459","97","4","3","2","4","<p style=font-size: 90px;>&#x2192</p>","17","1617","horizontal","ydk","2","3","16",-0.23165957,-0.13899593,0.41698588,"NULL","0",0.09266364,0
"167","2023-01-25 21:39:33.900","725459","98","5","2","2","2","<p style=font-size: 90px;>&#x2193</p>","4","952","vertical","ydk","2","2","15",0.4633177,0.4633177,-0.27799139,"NULL","5",0,0
"168","2023-01-25 21:39:36.205","725459","99","3","4","1","3","<p style=font-size: 90px;>&#x2190</p>","6","649","horizontal","ydk","1","4","11",0.4633177,0.37065407,-0.18532775,"NULL","0",-0.09266363,0
"169","2023-01-25 21:39:38.263","725459","100","5","2","2","2","<p style=font-size: 90px;>&#x2193</p>","6","402","vertical","ydk","2","2","14",0.4633177,0.37065407,0.37065407,"NULL","5",-0.09266363,1
"170","2023-01-25 21:39:41.396","725459","101","5","1","2","2","<p style=font-size: 90px;>&#x2193</p>","22","1487","vertical","ydk","2","1","9",-0.27799139,-0.37065503,0.37065407,"NULL","5",-0.09266364,0
"171","2023-01-25 21:39:44.509","725459","102","3","3","2","4","<p style=font-size: 90px;>&#x2192</p>","10","1463","horizontal","ydk","2","3","16",0.4633177,0.18532679,0.32432225,"NULL","1",-0.27799091,1
"172","2023-01-25 21:39:48.613","725459","103","3","4","2","4","<p style=font-size: 90px;>&#x2192</p>","14","2446","horizontal","ydk","2","4","11",-4.8e-07,-4.8e-07,-0.27799139,"NULL","0",0,1
"173","2023-01-25 21:39:51.524","725459","104","5","3","2","4","<p style=font-size: 90px;>&#x2192</p>","24","1265","horizontal","ydk","2","3","24",-0.46331866,-4.8e-07,0.04633134,"NULL","5",0.46331818,0
"174","2023-01-25 21:39:54.205","725459","105","3","4","2","4","<p style=font-size: 90px;>&#x2192</p>","24","1025","horizontal","ydk","2","4","15",-0.37065503,-0.46331866,0.27799043,"NULL","0",-0.09266363,0
"175","2023-01-25 21:39:57.868","725459","106","3","3","2","4","<p style=font-size: 90px;>&#x2192</p>","8","2009","horizontal","ydk","2","3","9",0.32432225,0.27799043,-0.13899593,"NULL","1",-0.04633182,0
"176","2023-01-25 21:40:00.686","725459","107","1","1","1","1","<p style=font-size: 90px;>&#x2191</p>","9","1144","vertical","ydk","1","1","9",-0.09266412,0.27799043,0.27799043,"NULL","1",0.37065455,0
"177","2023-01-25 21:40:05.027","725459","108","5","2","1","1","<p style=font-size: 90px;>&#x2191</p>","6","2680","vertical","ydk","1","2","20",0.18532679,0.37065407,-0.37065503,"NULL","5",0.18532728,0
"178","2023-01-25 21:40:07.684","725459","109","1","1","2","2","<p style=font-size: 90px;>&#x2193</p>","12","992","vertical","ydk","2","1","17",-0.18532775,0.09266316,-0.32432321,"NULL","1",0.27799091,1
"179","2023-01-25 21:40:12.349","725459","110","1","2","1","1","<p style=font-size: 90px;>&#x2191</p>","6","3009","vertical","ydk","1","2","12",-0.23165957,0.37065407,-0.32432321,"NULL","0",0.60231364,1
"180","2023-01-25 21:40:14.773","725459","111","4","4","2","4","<p style=font-size: 90px;>&#x2192</p>","18","769","horizontal","ydk","2","4","21",-0.09266412,-0.18532775,0.04633134,"NULL","1",-0.09266363,0
"181","2023-01-25 21:40:17.276","725459","112","3","3","2","4","<p style=font-size: 90px;>&#x2192</p>","21","852","horizontal","ydk","2","3","5",-0.27799139,-0.32432321,-0.23165957,"NULL","1",-0.04633182,1
"182","2023-01-25 21:40:20.197","725459","113","3","3","2","4","<p style=font-size: 90px;>&#x2192</p>","6","1269","horizontal","ydk","2","3","3",0.18532679,0.37065407,-0.23165957,"NULL","1",0.18532728,0
"183","2023-01-25 21:40:22.818","725459","114","1","2","1","1","<p style=font-size: 90px;>&#x2191</p>","17","977","vertical","ydk","1","2","20",0.13899498,-0.13899593,0.41698588,"NULL","0",-0.27799091,1
"184","2023-01-25 21:40:25.254","725459","115","5","1","2","2","<p style=font-size: 90px;>&#x2193</p>","15","790","vertical","ydk","2","1","13",0.04633134,-0.0463323,0.32432225,"NULL","5",-0.09266364,1
"185","2023-01-25 21:40:27.406","725459","116","5","4","2","4","<p style=font-size: 90px;>&#x2192</p>","15","495","horizontal","ydk","2","4","8",0.04633134,-0.0463323,0.18532679,"NULL","5",-0.09266364,1
"186","2023-01-25 21:40:30.116","725459","117","4","4","2","4","<p style=font-size: 90px;>&#x2192</p>","15","1051","horizontal","ydk","2","4","1",0.41698588,-0.0463323,0.4633177,"NULL","1",-0.46331818,1
"187","2023-01-25 21:40:32.299","725459","118","4","4","2","4","<p style=font-size: 90px;>&#x2192</p>","16","549","horizontal","ydk","2","4","14",-0.18532775,-0.09266412,-0.23165957,"NULL","1",0.09266363,1
"188","2023-01-25 21:40:35.775","725459","119","1","1","1","1","<p style=font-size: 90px;>&#x2191</p>","3","1833","vertical","ydk","1","1","21",0.27799043,0.50964952,0.23165861,"NULL","1",0.23165909,1
"189","2023-01-25 21:40:38.445","725459","120","5","2","2","2","<p style=font-size: 90px;>&#x2193</p>","19","1001","vertical","ydk","2","2","5",-0.18532775,-0.23165957,-0.46331866,"NULL","5",-0.04633182,1
"190","2023-01-25 21:40:41.397","725459","121","1","1","2","2","<p style=font-size: 90px;>&#x2193</p>","17","1296","vertical","ydk","2","1","24",-0.0463323,-0.13899593,-0.27799139,"NULL","1",-0.09266363,1
"191","2023-01-25 21:40:43.628","725459","122","5","2","2","2","<p style=font-size: 90px;>&#x2193</p>","14","573","vertical","ydk","2","2","3",0.04633134,-4.8e-07,0.09266316,"NULL","5",-0.04633182,1
"192","2023-01-25 21:40:46.307","725459","123","5","2","2","2","<p style=font-size: 90px;>&#x2193</p>","2","1024","vertical","ydk","2","2","5",0.41698588,0.55598134,-0.37065503,"NULL","5",0.13899546,0
"193","2023-01-25 21:40:49.955","725459","124","2","2","2","2","<p style=font-size: 90px;>&#x2193</p>","23","1982","vertical","ydk","2","2","17",-0.37065503,-0.41698684,0.27799043,"NULL","1",-0.04633181,0
"194","2023-01-25 21:40:52.564","725459","125","5","3","1","3","<p style=font-size: 90px;>&#x2190</p>","21","950","horizontal","ydk","1","3","10",-0.46331866,-0.32432321,0.41698588,"NULL","5",0.13899545,0
"195","2023-01-25 21:40:55.316","725459","126","2","2","2","2","<p style=font-size: 90px;>&#x2193</p>","11","1081","vertical","ydk","2","2","25",0.23165861,0.13899498,-0.32432321,"NULL","1",-0.09266363,0
"196","2023-01-25 21:40:59.731","725459","127","5","2","1","1","<p style=font-size: 90px;>&#x2191</p>","3","2761","vertical","ydk","1","2","3",0.4633177,0.13899498,0.13899498,"NULL","5",-0.32432272,1
"197","2023-01-25 21:41:02.403","725459","128","5","3","1","3","<p style=font-size: 90px;>&#x2190</p>","12","1021","horizontal","ydk","1","3","18",-0.09266412,0.09266316,-0.13899593,"NULL","5",0.18532728,1
"198","2023-01-25 21:41:05.019","725459","129","1","2","1","1","<p style=font-size: 90px;>&#x2191</p>","13","968","vertical","ydk","1","2","10",-4.8e-07,0.04633134,0.41698588,"NULL","0",0.04633182,0
"199","2023-01-25 21:41:06.939","725459","130","5","2","2","2","<p style=font-size: 90px;>&#x2193</p>","13","265","vertical","ydk","2","2","3",-0.37065503,0.04633134,-4.8e-07,"NULL","5",0.41698637,1
"200","2023-01-25 21:41:09.980","725459","131","5","2","2","2","<p style=font-size: 90px;>&#x2193</p>","14","1385","vertical","ydk","2","2","8",0.13899498,-4.8e-07,-0.37065503,"NULL","5",-0.13899546,0
"201","2023-01-25 21:41:13.932","725459","132","5","2","2","2","<p style=font-size: 90px;>&#x2193</p>","19","2289","vertical","ydk","2","2","13",-0.23165957,-0.23165957,-0.46331866,"NULL","5",0,1
"202","2023-01-25 21:41:16.523","725459","133","5","2","1","1","<p style=font-size: 90px;>&#x2191</p>","17","949","vertical","ydk","1","2","15",-0.23165957,-0.13899593,-0.23165957,"NULL","5",0.09266364,1
"203","2023-01-25 21:41:19.757","725459","134","1","2","1","1","<p style=font-size: 90px;>&#x2191</p>","16","1586","vertical","ydk","1","2","15",-0.13899593,-0.09266412,0.04633134,"NULL","0",0.04633181,0
"204","2023-01-25 21:41:22.634","725459","135","5","4","1","3","<p style=font-size: 90px;>&#x2190</p>","4","1216","horizontal","ydk","1","4","11",0.4633177,0.4633177,-0.0463323,"NULL","5",0,0
"205","2023-01-25 21:41:26.260","725459","136","2","2","1","1","<p style=font-size: 90px;>&#x2191</p>","7","1976","vertical","ydk","1","2","17",0.23165861,0.32432225,-4.8e-07,"NULL","1",0.09266364,0
"206","2023-01-25 21:41:29.172","725459","137","4","4","1","3","<p style=font-size: 90px;>&#x2190</p>","7","1265","horizontal","ydk","1","4","25",-4.8e-07,0.32432225,0.37065407,"NULL","1",0.32432273,0
"207","2023-01-25 21:41:32.924","725459","138","5","4","2","4","<p style=font-size: 90px;>&#x2192</p>","25","2089","horizontal","ydk","2","4","11",-0.37065503,-0.50965048,-0.09266412,"NULL","5",-0.13899545,1
"208","2023-01-25 21:41:35.754","725459","139","5","1","2","2","<p style=font-size: 90px;>&#x2193</p>","13","1184","vertical","ydk","2","1","24",0.04633134,0.04633134,0.37065407,"NULL","5",0,1
"209","2023-01-25 21:41:38.532","725459","140","1","1","2","2","<p style=font-size: 90px;>&#x2193</p>","15","1105","vertical","ydk","2","1","8",-4.8e-07,-0.0463323,0.09266316,"NULL","1",-0.04633182,0
"210","2023-01-25 21:41:42.034","725459","141","4","3","2","4","<p style=font-size: 90px;>&#x2192</p>","22","1848","horizontal","ydk","2","3","5",-0.27799139,-0.37065503,-0.13899593,"NULL","0",-0.09266364,1
"211","2023-01-25 21:41:44.460","725459","142","1","1","2","2","<p style=font-size: 90px;>&#x2193</p>","17","777","vertical","ydk","2","1","6",0.09266316,-0.13899593,0.18532679,"NULL","1",-0.23165909,1
"212","2023-01-25 21:41:46.707","725459","143","4","4","1","3","<p style=font-size: 90px;>&#x2190</p>","17","597","horizontal","ydk","1","4","20",-0.18532775,-0.13899593,0.04633134,"NULL","1",0.04633182,0
"213","2023-01-25 21:41:50.520","725459","144","1","1","1","1","<p style=font-size: 90px;>&#x2191</p>","5","2160","vertical","ydk","1","1","24",0.27799043,0.41698588,0.18532679,"NULL","1",0.13899545,1
"214","2023-01-25 21:41:52.714","725459","145","1","1","1","1","<p style=font-size: 90px;>&#x2191</p>","5","530","vertical","ydk","1","1","25",-0.27799139,0.41698588,-4.8e-07,"NULL","1",0.69497727,1
"215","2023-01-25 21:41:56.507","725459","146","4","4","1","3","<p style=font-size: 90px;>&#x2190</p>","23","2138","horizontal","ydk","1","4","14",-0.32432321,-0.41698684,0.13899498,"NULL","1",-0.0926636300000001,0
"216","2023-01-25 21:41:58.683","725459","147","3","4","1","3","<p style=font-size: 90px;>&#x2190</p>","23","508","horizontal","ydk","1","4","25",-0.23165957,-0.41698684,-0.32432321,"NULL","0",-0.18532727,1
"217","2023-01-25 21:42:01.066","725459","148","4","4","2","4","<p style=font-size: 90px;>&#x2192</p>","23","720","horizontal","ydk","2","4","13",-0.41698684,-0.41698684,0.23165861,"NULL","1",0,0
"218","2023-01-25 21:42:04.498","725459","149","5","4","2","4","<p style=font-size: 90px;>&#x2192</p>","17","1769","horizontal","ydk","2","4","11",-0.13899593,-0.13899593,0.32432225,"NULL","5",0,0
"219","2023-01-25 21:42:07.412","725459","150","4","4","2","4","<p style=font-size: 90px;>&#x2192</p>","20","1257","horizontal","ydk","2","4","25",-0.18532775,-0.27799139,-0.27799139,"NULL","1",-0.09266364,1
"220","2023-01-25 21:42:10.603","725459","151","4","3","2","4","<p style=font-size: 90px;>&#x2192</p>","27","1545","horizontal","ydk","2","3","18",-0.46331866,-0.60231412,0.13899498,"NULL","0",-0.13899546,0
"221","2023-01-25 21:42:14.844","725459","152","1","1","1","1","<p style=font-size: 90px;>&#x2191</p>","12","2579","vertical","ydk","1","1","17",-0.18532775,0.09266316,-0.46331866,"NULL","1",0.27799091,1
"222","2023-01-25 21:42:16.925","725459","153","5","4","1","3","<p style=font-size: 90px;>&#x2190</p>","12","427","horizontal","ydk","1","4","10",0.13899498,0.09266316,-0.18532775,"NULL","5",-0.04633182,0
"223","2023-01-25 21:42:19.819","725459","154","4","4","2","4","<p style=font-size: 90px;>&#x2192</p>","25","1231","horizontal","ydk","2","4","10",-0.41698684,-0.50965048,0.41698588,"NULL","1",-0.09266364,0
"224","2023-01-25 21:42:22.282","725459","155","5","2","1","1","<p style=font-size: 90px;>&#x2191</p>","3","814","vertical","ydk","1","2","14",0.23165861,0.50964952,0.32432225,"NULL","5",0.27799091,1
"225","2023-01-25 21:42:24.155","725459","156","1","1","2","2","<p style=font-size: 90px;>&#x2193</p>","3","222","vertical","ydk","2","1","8",-0.09266412,0.50964952,0.27799043,"NULL","1",0.60231364,0
"226","2023-01-25 21:42:27.012","725459","157","3","4","2","4","<p style=font-size: 90px;>&#x2192</p>","20","1202","horizontal","ydk","2","4","4",-0.41698684,-0.27799139,-0.37065503,"NULL","0",0.13899545,1
"227","2023-01-25 21:42:29.723","725459","158","5","3","1","3","<p style=font-size: 90px;>&#x2190</p>","14","1049","horizontal","ydk","1","3","3",0.09266316,-4.8e-07,-4.8e-07,"NULL","5",-0.09266364,0
"228","2023-01-25 21:42:31.586","725459","159","4","3","1","3","<p style=font-size: 90px;>&#x2190</p>","14","200","horizontal","ydk","1","3","11",0.27799043,-4.8e-07,-0.18532775,"NULL","0",-0.27799091,0
"229","2023-01-25 21:42:33.986","725459","160","1","1","2","2","<p style=font-size: 90px;>&#x2193</p>","14","746","vertical","ydk","2","1","14",-0.32432321,-4.8e-07,0.04633134,"NULL","1",0.32432273,0
"230","2023-01-25 21:42:37.603","725459","161","1","2","1","1","<p style=font-size: 90px;>&#x2191</p>","23","1957","vertical","ydk","1","2","15",-0.46331866,-0.41698684,-0.37065503,"NULL","0",0.04633182,1
"231","2023-01-25 21:42:41.851","725459","162","5","3","2","4","<p style=font-size: 90px;>&#x2192</p>","11","2601","horizontal","ydk","2","3","16",-0.0463323,0.13899498,0.18532679,"NULL","5",0.18532728,0
"232","2023-01-25 21:42:44.162","725459","163","3","3","1","3","<p style=font-size: 90px;>&#x2190</p>","11","656","horizontal","ydk","1","3","25",0.37065407,0.13899498,-0.0463323,"NULL","1",-0.23165909,0
"233","2023-01-25 21:42:47.619","725459","164","2","2","1","1","<p style=font-size: 90px;>&#x2191</p>","26","1808","vertical","ydk","1","2","21",-0.46331866,-0.5559823,-0.32432321,"NULL","1",-0.09266364,1
"234","2023-01-25 21:42:50.979","725459","165","2","1","1","1","<p style=font-size: 90px;>&#x2191</p>","4","1702","vertical","ydk","1","1","12",-0.18532775,0.4633177,0.41698588,"NULL","0",0.64864545,0
"235","2023-01-25 21:42:56.099","725459","166","1","1","2","2","<p style=font-size: 90px;>&#x2193</p>","7","3461","vertical","ydk","2","1","9",-0.23165957,0.32432225,-0.18532775,"NULL","1",0.55598182,1
"236","2023-01-25 21:42:59.009","725459","167","4","3","1","3","<p style=font-size: 90px;>&#x2190</p>","21","1270","horizontal","ydk","1","3","18",-0.37065503,-0.32432321,0.27799043,"NULL","0",0.04633182,0
"237","2023-01-25 21:43:03.610","725459","168","1","1","2","2","<p style=font-size: 90px;>&#x2193</p>","15","2947","vertical","ydk","2","1","12",0.32432225,-0.0463323,-0.0463323,"NULL","1",-0.37065455,0
"238","2023-01-25 21:43:05.818","725459","169","3","3","2","4","<p style=font-size: 90px;>&#x2192</p>","15","529","horizontal","ydk","2","3","1",0.09266316,-0.0463323,-0.13899593,"NULL","1",-0.13899546,0
"239","2023-01-25 21:43:09.476","725459","170","5","3","1","3","<p style=font-size: 90px;>&#x2190</p>","20","2016","horizontal","ydk","1","3","15",-0.41698684,-0.27799139,0.27799043,"NULL","5",0.13899545,0
"240","2023-01-25 21:43:12.003","725459","171","4","3","1","3","<p style=font-size: 90px;>&#x2190</p>","22","870","horizontal","ydk","1","3","25",-0.27799139,-0.37065503,-0.41698684,"NULL","0",-0.09266364,1
"241","2023-01-25 21:43:14.994","725459","172","3","4","2","4","<p style=font-size: 90px;>&#x2192</p>","21","1337","horizontal","ydk","2","4","13",-0.18532775,-0.32432321,0.27799043,"NULL","0",-0.13899546,0
"242","2023-01-25 21:43:18.194","725459","173","5","3","1","3","<p style=font-size: 90px;>&#x2190</p>","16","1536","horizontal","ydk","1","3","24",0.18532679,-0.09266412,0.37065407,"NULL","5",-0.27799091,1
"243","2023-01-25 21:43:20.713","725459","174","3","3","2","4","<p style=font-size: 90px;>&#x2192</p>","16","864","horizontal","ydk","2","3","20",0.09266316,-0.09266412,0.04633134,"NULL","1",-0.18532728,1
"244","2023-01-25 21:43:23.105","725459","175","1","1","1","1","<p style=font-size: 90px;>&#x2191</p>","16","729","vertical","ydk","1","1","12",-0.18532775,-0.09266412,-0.23165957,"NULL","1",0.09266363,1
"245","2023-01-25 21:43:27.466","725459","176","5","2","2","2","<p style=font-size: 90px;>&#x2193</p>","25","2697","vertical","ydk","2","2","1",-0.46331866,-0.50965048,-0.09266412,"NULL","5",-0.04633182,1
"246","2023-01-25 21:43:30.859","725459","177","5","3","1","3","<p style=font-size: 90px;>&#x2190</p>","4","1743","horizontal","ydk","1","3","17",0.13899498,0.4633177,-0.37065503,"NULL","5",0.32432272,0
"247","2023-01-25 21:43:34.090","725459","178","3","3","2","4","<p style=font-size: 90px;>&#x2192</p>","20","1574","horizontal","ydk","2","3","3",-0.37065503,-0.27799139,-0.18532775,"NULL","1",0.09266364,1
"248","2023-01-25 21:43:38.042","725459","179","2","2","1","1","<p style=font-size: 90px;>&#x2191</p>","2","2296","vertical","ydk","1","2","2",0.41698588,-0.27799139,0.27799043,"NULL","1",-0.69497727,1
"249","2023-01-25 21:43:41.274","725459","180","3","4","2","4","<p style=font-size: 90px;>&#x2192</p>","9","1577","horizontal","ydk","2","4","19",0.23165861,0.23165861,0.13899498,"NULL","0",0,1
"250","2023-01-25 21:43:43.770","725459","181","4","4","2","4","<p style=font-size: 90px;>&#x2192</p>","7","842","horizontal","ydk","2","4","17",-0.23165957,0.32432225,0.18532679,"NULL","1",0.55598182,0
"251","2023-01-25 21:43:46.218","725459","182","2","1","2","2","<p style=font-size: 90px;>&#x2193</p>","7","793","vertical","ydk","2","1","4",0.18532679,0.32432225,-0.09266412,"NULL","0",0.13899546,0
"252","2023-01-25 21:43:50.241","725459","183","2","1","2","2","<p style=font-size: 90px;>&#x2193</p>","5","2360","vertical","ydk","2","1","8",0.37065407,0.41698588,-0.27799139,"NULL","0",0.04633181,0
"253","2023-01-25 21:43:52.945","725459","184","3","3","2","4","<p style=font-size: 90px;>&#x2192</p>","2","1047","horizontal","ydk","2","3","23",0.37065407,0.55598134,0.32432225,"NULL","1",0.18532727,1
"254","2023-01-25 21:43:57.874","725459","185","1","2","2","2","<p style=font-size: 90px;>&#x2193</p>","16","3244","vertical","ydk","2","2","24",-0.46331866,-0.09266412,0.09266316,"NULL","0",0.37065454,0
"255","2023-01-25 21:44:01.266","725459","186","4","4","2","4","<p style=font-size: 90px;>&#x2192</p>","4","1749","horizontal","ydk","2","4","9",0.4633177,0.4633177,0.18532679,"NULL","1",0,1
"256","2023-01-25 21:44:05.833","725459","187","5","1","1","1","<p style=font-size: 90px;>&#x2191</p>","21","2905","vertical","ydk","1","1","15",0.18532679,-0.32432321,0.41698588,"NULL","5",-0.50965,1
"257","2023-01-25 21:44:11.922","725459","188","1","2","1","1","<p style=font-size: 90px;>&#x2191</p>","20","4426","vertical","ydk","1","2","6",-0.41698684,-0.27799139,0.04633134,"NULL","0",0.13899545,0
"258","2023-01-25 21:44:14.290","725459","189","2","2","2","2","<p style=font-size: 90px;>&#x2193</p>","16","710","vertical","ydk","2","2","21",-0.18532775,-0.09266412,-0.37065503,"NULL","1",0.09266363,1
"259","2023-01-25 21:44:18.384","725459","190","2","2","1","1","<p style=font-size: 90px;>&#x2191</p>","21","2426","vertical","ydk","1","2","20",-0.32432321,-0.32432321,-0.13899593,"NULL","1",0,1
"260","2023-01-25 21:44:21.249","725459","191","3","4","1","3","<p style=font-size: 90px;>&#x2190</p>","15","1214","horizontal","ydk","1","4","22",-0.23165957,-0.0463323,-0.27799139,"NULL","0",0.18532727,1
"261","2023-01-25 21:44:25.413","725459","192","5","3","1","3","<p style=font-size: 90px;>&#x2190</p>","21","2517","horizontal","ydk","1","3","9",0.13899498,-0.32432321,0.41698588,"NULL","5",-0.46331819,1
"262","2023-01-25 21:44:28.627","725459","193","4","3","1","3","<p style=font-size: 90px;>&#x2190</p>","13","1555","horizontal","ydk","1","3","6",-0.13899593,0.04633134,0.32432225,"NULL","0",0.18532727,0
"263","2023-01-25 21:44:31.097","725459","194","3","4","1","3","<p style=font-size: 90px;>&#x2190</p>","7","809","horizontal","ydk","1","4","19",-0.09266412,0.32432225,0.41698588,"NULL","0",0.41698637,0
"264","2023-01-25 21:44:35.473","725459","195","1","2","2","2","<p style=font-size: 90px;>&#x2193</p>","16","2724","vertical","ydk","2","2","11",0.23165861,-0.09266412,-0.37065503,"NULL","0",-0.32432273,0
"265","2023-01-25 21:44:38.960","725459","196","4","3","1","3","<p style=font-size: 90px;>&#x2190</p>","3","1825","horizontal","ydk","1","3","1",0.27799043,0.50964952,-0.46331866,"NULL","0",0.23165909,0
"266","2023-01-25 21:44:41.616","725459","197","4","4","1","3","<p style=font-size: 90px;>&#x2190</p>","6","995","horizontal","ydk","1","4","3",0.23165861,0.37065407,0.09266316,"NULL","1",0.13899546,1
"267","2023-01-25 21:44:44.192","725459","198","5","3","2","4","<p style=font-size: 90px;>&#x2192</p>","24","919","horizontal","ydk","2","3","10",-0.37065503,-0.46331866,-0.41698684,"NULL","5",-0.09266363,1
"268","2023-01-25 21:44:46.905","725459","199","5","1","1","1","<p style=font-size: 90px;>&#x2191</p>","5","1049","vertical","ydk","1","1","8",-0.0463323,0.41698588,0.4633177,"NULL","5",0.46331818,0
"269","2023-01-25 21:44:50.152","725459","200","5","2","2","2","<p style=font-size: 90px;>&#x2193</p>","24","1609","vertical","ydk","2","2","15",-0.37065503,-0.46331866,-0.0463323,"NULL","5",-0.09266363,1
"270","2023-01-25 21:44:57.921","725459","201","2","1","2","2","<p style=font-size: 90px;>&#x2193</p>","14","1522","vertical","ydk","2","1","1",0.18532679,-4.8e-07,-0.27799139,"NULL","0",-0.18532727,0
"271","2023-01-25 21:45:00.384","725459","202","5","1","1","1","<p style=font-size: 90px;>&#x2191</p>","13","808","vertical","ydk","1","1","22",0.27799043,0.04633134,-0.09266412,"NULL","5",-0.23165909,0
"272","2023-01-25 21:45:04.713","725459","203","3","3","1","3","<p style=font-size: 90px;>&#x2190</p>","15","2677","horizontal","ydk","1","3","6",-0.27799139,-0.0463323,-0.27799139,"NULL","1",0.23165909,1
"273","2023-01-25 21:45:07.792","725459","204","4","3","1","3","<p style=font-size: 90px;>&#x2190</p>","23","1431","horizontal","ydk","1","3","8",-0.41698684,-0.41698684,-4.8e-07,"NULL","0",0,1
"274","2023-01-25 21:45:11.106","725459","205","5","4","1","3","<p style=font-size: 90px;>&#x2190</p>","14","1650","horizontal","ydk","1","4","4",0.04633134,-4.8e-07,-0.13899593,"NULL","5",-0.04633182,0
"275","2023-01-25 21:45:13.632","725459","206","1","1","2","2","<p style=font-size: 90px;>&#x2193</p>","13","843","vertical","ydk","2","1","15",-0.0463323,0.04633134,0.13899498,"NULL","1",0.09266364,0
"276","2023-01-25 21:45:16.191","725459","207","5","2","2","2","<p style=font-size: 90px;>&#x2193</p>","10","895","vertical","ydk","2","2","20",-0.09266412,0.18532679,-0.32432321,"NULL","5",0.27799091,1
"277","2023-01-25 21:45:18.608","725459","208","2","1","2","2","<p style=font-size: 90px;>&#x2193</p>","11","768","vertical","ydk","2","1","15",-0.27799139,0.13899498,0.13899498,"NULL","0",0.41698637,0
"278","2023-01-25 21:45:21.463","725459","209","4","3","2","4","<p style=font-size: 90px;>&#x2192</p>","6","1197","horizontal","ydk","2","3","11",0.37065407,0.37065407,-0.32432321,"NULL","0",0,0
"279","2023-01-25 21:45:24.160","725459","210","5","1","1","1","<p style=font-size: 90px;>&#x2191</p>","17","1040","vertical","ydk","1","1","19",0.18532679,-0.13899593,0.27799043,"NULL","5",-0.32432272,1
"280","2023-01-25 21:45:27.240","725459","211","4","4","1","3","<p style=font-size: 90px;>&#x2190</p>","24","1423","horizontal","ydk","1","4","9",-0.46331866,-0.46331866,-4.8e-07,"NULL","1",0,1
"281","2023-01-25 21:45:30.344","725459","212","5","2","1","1","<p style=font-size: 90px;>&#x2191</p>","10","1449","vertical","ydk","1","2","5",0.04633134,0.18532679,-0.32432321,"NULL","5",0.13899545,0
"282","2023-01-25 21:45:33.033","725459","213","5","1","2","2","<p style=font-size: 90px;>&#x2193</p>","23","1028","vertical","ydk","2","1","1",-0.18532775,-0.41698684,0.37065407,"NULL","5",-0.23165909,0
"283","2023-01-25 21:45:37.576","725459","214","5","4","1","3","<p style=font-size: 90px;>&#x2190</p>","4","2889","horizontal","ydk","1","4","3",0.23165861,0.4633177,0.32432225,"NULL","5",0.23165909,1
"284","2023-01-25 21:45:41.058","725459","215","5","3","2","4","<p style=font-size: 90px;>&#x2192</p>","27","1832","horizontal","ydk","2","3","14",-0.37065503,-0.60231412,0.41698588,"NULL","5",-0.23165909,0
"285","2023-01-25 21:45:43.777","725459","216","2","1","2","2","<p style=font-size: 90px;>&#x2193</p>","1","1062","vertical","ydk","2","1","9",0.4633177,0.60231412,-0.37065503,"NULL","0",0.13899642,0
"286","2023-01-25 21:45:46.728","725459","217","5","1","1","1","<p style=font-size: 90px;>&#x2191</p>","27","1290","vertical","ydk","1","1","15",-0.32432321,-0.60231412,0.27799043,"NULL","5",-0.27799091,0
"287","2023-01-25 21:45:49.705","725459","218","5","3","2","4","<p style=font-size: 90px;>&#x2192</p>","19","1317","horizontal","ydk","2","3","24",0.18532679,-0.23165957,0.4633177,"NULL","5",-0.41698636,1
"288","2023-01-25 21:45:52.359","725459","219","5","1","1","1","<p style=font-size: 90px;>&#x2191</p>","12","998","vertical","ydk","1","1","13",-4.8e-07,0.09266316,0.41698588,"NULL","5",0.09266364,0
"289","2023-01-25 21:45:54.767","725459","220","3","3","1","3","<p style=font-size: 90px;>&#x2190</p>","12","747","horizontal","ydk","1","3","21",0.18532679,0.09266316,-0.0463323,"NULL","1",-0.09266363,0
"290","2023-01-25 21:45:57.424","725459","221","4","4","1","3","<p style=font-size: 90px;>&#x2190</p>","7","1001","horizontal","ydk","1","4","16",-0.09266412,0.32432225,-0.41698684,"NULL","1",0.41698637,1
"291","2023-01-25 21:46:00.715","725459","222","4","4","1","3","<p style=font-size: 90px;>&#x2190</p>","15","1644","horizontal","ydk","1","4","25",-0.09266412,-0.0463323,0.37065407,"NULL","1",0.04633182,0
"292","2023-01-25 21:46:03.082","725459","223","1","1","2","2","<p style=font-size: 90px;>&#x2193</p>","15","693","vertical","ydk","2","1","6",0.18532679,-0.0463323,0.04633134,"NULL","1",-0.23165909,1
"293","2023-01-25 21:46:05.199","725459","224","5","4","2","4","<p style=font-size: 90px;>&#x2192</p>","15","472","horizontal","ydk","2","4","17",-0.09266412,-0.0463323,-0.37065503,"NULL","5",0.04633182,1
"294","2023-01-25 21:46:08.376","725459","225","1","2","2","2","<p style=font-size: 90px;>&#x2193</p>","4","1512","vertical","ydk","2","2","21",0.13899498,0.4633177,-0.41698684,"NULL","0",0.32432272,0
"295","2023-01-25 21:46:11.439","725459","226","5","4","1","3","<p style=font-size: 90px;>&#x2190</p>","1","1410","horizontal","ydk","1","4","17",0.37065407,0.60231412,-0.18532775,"NULL","5",0.23166005,0
"296","2023-01-25 21:46:15.008","725459","227","5","1","2","2","<p style=font-size: 90px;>&#x2193</p>","16","1910","vertical","ydk","2","1","3",-4.8e-07,-0.09266412,0.13899498,"NULL","5",-0.09266364,0
"297","2023-01-25 21:46:19.161","725459","228","3","4","2","4","<p style=font-size: 90px;>&#x2192</p>","27","2496","horizontal","ydk","2","4","7",-0.32432321,-0.60231412,0.4633177,"NULL","0",-0.27799091,0
"298","2023-01-25 21:46:21.975","725459","229","5","2","1","1","<p style=font-size: 90px;>&#x2191</p>","8","1157","vertical","ydk","1","2","7",0.13899498,0.27799043,-0.23165957,"NULL","5",0.13899545,0
"299","2023-01-25 21:46:25.713","725459","230","1","2","1","1","<p style=font-size: 90px;>&#x2191</p>","25","2082","vertical","ydk","1","2","20",-0.37065503,-0.50965048,-0.09266412,"NULL","0",-0.13899545,1
"300","2023-01-25 21:46:28.503","725459","231","5","2","2","2","<p style=font-size: 90px;>&#x2193</p>","18","1097","vertical","ydk","2","2","25",0.32432225,-0.18532775,0.23165861,"NULL","5",-0.50965,1
"301","2023-01-25 21:46:31.369","725459","232","2","1","1","1","<p style=font-size: 90px;>&#x2191</p>","3","1211","vertical","ydk","1","1","9",0.4633177,0.50964952,-0.13899593,"NULL","0",0.04633182,0
"302","2023-01-25 21:46:33.888","725459","233","5","4","2","4","<p style=font-size: 90px;>&#x2192</p>","2","860","horizontal","ydk","2","4","2",0.32432225,0.50964952,-0.27799139,"NULL","5",0.18532727,0
"303","2023-01-25 21:46:36.055","725459","234","2","1","2","2","<p style=font-size: 90px;>&#x2193</p>","2","506","vertical","ydk","2","1","8",0.4633177,0.55598134,-0.18532775,"NULL","0",0.09266364,0
"304","2023-01-25 21:46:38.207","725459","235","5","4","1","3","<p style=font-size: 90px;>&#x2190</p>","2","489","horizontal","ydk","1","4","2",0.32432225,0.55598134,-0.46331866,"NULL","5",0.23165909,0
"305","2023-01-25 21:46:41.577","725459","236","1","2","2","2","<p style=font-size: 90px;>&#x2193</p>","15","1717","vertical","ydk","2","2","9",0.23165861,-0.0463323,-0.32432321,"NULL","0",-0.27799091,0
"306","2023-01-25 21:46:44.271","725459","237","5","1","2","2","<p style=font-size: 90px;>&#x2193</p>","9","1046","vertical","ydk","2","1","10",0.32432225,0.23165861,-0.23165957,"NULL","5",-0.09266364,0
"307","2023-01-25 21:46:47.287","725459","238","4","3","1","3","<p style=font-size: 90px;>&#x2190</p>","21","1345","horizontal","ydk","1","3","2",-0.41698684,-0.32432321,-0.13899593,"NULL","0",0.0926636300000001,1
"308","2023-01-25 21:46:56.409","725459","239","4","3","2","4","<p style=font-size: 90px;>&#x2192</p>","23","7468","horizontal","ydk","2","3","15",-0.32432321,-0.41698684,-0.09266412,"NULL","0",-0.0926636300000001,1
"309","2023-01-25 21:47:00.096","725459","240","1","2","2","2","<p style=font-size: 90px;>&#x2193</p>","14","2031","vertical","ydk","2","2","14",-0.0463323,-0.41698684,-0.0463323,"NULL","0",-0.37065454,1
"310","2023-01-25 21:47:06.495","725459","241","4","4","2","4","<p style=font-size: 90px;>&#x2192</p>","6","4741","horizontal","ydk","2","4","22",-0.32432321,0.37065407,-0.13899593,"NULL","1",0.69497728,1
"311","2023-01-25 21:47:08.719","725459","242","5","3","2","4","<p style=font-size: 90px;>&#x2192</p>","6","552","horizontal","ydk","2","3","11",0.18532679,0.37065407,-0.37065503,"NULL","5",0.18532728,0
"312","2023-01-25 21:47:11.991","725459","243","3","3","1","3","<p style=font-size: 90px;>&#x2190</p>","2","1617","horizontal","ydk","1","3","1",0.4633177,0.55598134,0.37065407,"NULL","1",0.09266364,1
"313","2023-01-25 21:47:14.925","725459","244","2","1","1","1","<p style=font-size: 90px;>&#x2191</p>","13","1284","vertical","ydk","1","1","19",-0.18532775,0.04633134,-0.46331866,"NULL","0",0.23165909,1
"314","2023-01-25 21:47:16.823","725459","245","3","3","1","3","<p style=font-size: 90px;>&#x2190</p>","12","241","horizontal","ydk","1","3","4",0.04633134,0.09266316,-0.46331866,"NULL","1",0.04633182,0
"315","2023-01-25 21:47:46.176","725459","246","5","3","2","4","<p style=font-size: 90px;>&#x2192</p>","17","27693","horizontal","ydk","2","3","24",0.04633134,-0.13899593,-0.46331866,"NULL","5",-0.18532727,0
"316","2023-01-25 21:47:48.888","725459","247","4","3","1","3","<p style=font-size: 90px;>&#x2190</p>","5","1064","horizontal","ydk","1","3","5",0.27799043,-0.13899593,0.27799043,"NULL","0",-0.41698636,1
"317","2023-01-25 21:47:52.014","725459","248","5","1","1","1","<p style=font-size: 90px;>&#x2191</p>","24","1465","vertical","ydk","1","1","3",-0.41698684,-0.46331866,0.18532679,"NULL","5",-0.04633182,0
"318","2023-01-25 21:47:54.311","725459","249","2","2","1","1","<p style=font-size: 90px;>&#x2191</p>","17","635","vertical","ydk","1","2","13",-0.41698684,-0.13899593,-0.23165957,"NULL","1",0.27799091,1
"319","2023-01-25 21:47:56.453","725459","250","2","2","2","2","<p style=font-size: 90px;>&#x2193</p>","16","480","vertical","ydk","2","2","21",0.09266316,-0.09266412,-4.8e-07,"NULL","1",-0.18532728,0
"320","2023-01-25 21:47:59.422","725459","251","2","1","2","2","<p style=font-size: 90px;>&#x2193</p>","4","1304","vertical","ydk","2","1","4",0.37065407,-0.09266412,0.13899498,"NULL","0",-0.46331819,1
"321","2023-01-25 21:48:01.790","725459","252","3","3","1","3","<p style=font-size: 90px;>&#x2190</p>","23","705","horizontal","ydk","1","3","12",-0.41698684,-0.41698684,-0.46331866,"NULL","1",0,1
"322","2023-01-25 21:48:04.175","725459","253","2","2","1","1","<p style=font-size: 90px;>&#x2191</p>","15","735","vertical","ydk","1","2","23",-0.23165957,-0.0463323,0.23165861,"NULL","1",0.18532727,0
"323","2023-01-25 21:48:06.870","725459","254","3","3","2","4","<p style=font-size: 90px;>&#x2192</p>","4","1038","horizontal","ydk","2","3","14",0.23165861,0.4633177,0.04633134,"NULL","1",0.23165909,1
"324","2023-01-25 21:48:08.710","725459","255","2","2","1","1","<p style=font-size: 90px;>&#x2191</p>","4","184","vertical","ydk","1","2","23",0.32432225,0.4633177,-0.13899593,"NULL","1",0.13899545,0
"325","2023-01-25 21:48:11.032","725459","256","2","2","1","1","<p style=font-size: 90px;>&#x2191</p>","14","651","vertical","ydk","1","2","1",-4.8e-07,-4.8e-07,0.37065407,"NULL","1",0,0
"326","2023-01-25 21:48:13.767","725459","257","4","3","2","4","<p style=font-size: 90px;>&#x2192</p>","9","1078","horizontal","ydk","2","3","3",0.27799043,0.23165861,-0.09266412,"NULL","0",-0.04633182,0
"327","2023-01-25 21:48:16.469","725459","258","5","3","1","3","<p style=font-size: 90px;>&#x2190</p>","26","1035","horizontal","ydk","1","3","4",-0.32432321,-0.5559823,-0.41698684,"NULL","5",-0.23165909,1
"328","2023-01-25 21:48:18.935","725459","259","5","4","1","3","<p style=font-size: 90px;>&#x2190</p>","15","815","horizontal","ydk","1","4","8",-0.0463323,-0.0463323,-4.8e-07,"NULL","5",0,1
"329","2023-01-25 21:48:22.110","725459","260","2","2","1","1","<p style=font-size: 90px;>&#x2191</p>","7","1520","vertical","ydk","1","2","19",0.27799043,0.32432225,-0.0463323,"NULL","1",0.04633182,0
"330","2023-01-25 21:48:26.143","725459","261","1","1","2","2","<p style=font-size: 90px;>&#x2193</p>","12","2373","vertical","ydk","2","1","15",-0.23165957,0.09266316,0.13899498,"NULL","1",0.32432273,0
"331","2023-01-25 21:48:28.695","725459","262","5","4","1","3","<p style=font-size: 90px;>&#x2190</p>","12","860","horizontal","ydk","1","4","15",0.04633134,0.09266316,-0.0463323,"NULL","5",0.04633182,0
"332","2023-01-25 21:48:31.702","725459","263","4","3","2","4","<p style=font-size: 90px;>&#x2192</p>","10","1346","horizontal","ydk","2","3","23",0.13899498,0.18532679,0.04633134,"NULL","0",0.04633181,1
"333","2023-01-25 21:48:36.181","725459","264","4","3","1","3","<p style=font-size: 90px;>&#x2190</p>","24","2829","horizontal","ydk","1","3","19",-0.41698684,-0.46331866,0.4633177,"NULL","0",-0.04633182,0
"334","2023-01-25 21:48:39.206","725459","265","3","4","1","3","<p style=font-size: 90px;>&#x2190</p>","10","1361","horizontal","ydk","1","4","1",0.18532679,0.18532679,0.41698588,"NULL","0",0,1
"335","2023-01-25 21:48:42.926","725459","266","5","1","2","2","<p style=font-size: 90px;>&#x2193</p>","3","2064","vertical","ydk","2","1","3",0.4633177,0.18532679,-0.37065503,"NULL","5",-0.27799091,0
"336","2023-01-25 21:48:46.492","725459","267","2","1","1","1","<p style=font-size: 90px;>&#x2191</p>","5","1849","vertical","ydk","1","1","19",-0.37065503,0.41698588,0.09266316,"NULL","0",0.78764091,0
"337","2023-01-25 21:48:49.019","725459","268","2","2","2","2","<p style=font-size: 90px;>&#x2193</p>","14","877","vertical","ydk","2","2","24",-0.23165957,-4.8e-07,-0.41698684,"NULL","1",0.23165909,1
"338","2023-01-25 21:48:52.043","725459","269","5","2","2","2","<p style=font-size: 90px;>&#x2193</p>","12","1370","vertical","ydk","2","2","17",-0.27799139,0.09266316,0.4633177,"NULL","5",0.37065455,0
"339","2023-01-25 21:48:54.115","725459","270","2","1","2","2","<p style=font-size: 90px;>&#x2193</p>","12","416","vertical","ydk","2","1","22",-0.32432321,0.09266316,0.09266316,"NULL","0",0.41698637,0
"340","2023-01-25 21:49:06.845","725459","271","4","4","2","4","<p style=font-size: 90px;>&#x2192</p>","25","11077","horizontal","ydk","2","4","17",-0.41698684,-0.50965048,-0.0463323,"NULL","1",-0.09266364,1
"341","2023-01-25 21:49:08.899","725459","272","4","3","2","4","<p style=font-size: 90px;>&#x2192</p>","25","410","horizontal","ydk","2","3","9",-0.18532775,-0.50965048,0.23165861,"NULL","0",-0.32432273,0
"342","2023-01-25 21:49:12.939","725459","273","4","4","1","3","<p style=font-size: 90px;>&#x2190</p>","8","2382","horizontal","ydk","1","4","9",0.09266316,0.27799043,-0.37065503,"NULL","1",0.18532727,0
"343","2023-01-25 21:49:16.804","725459","274","5","1","1","1","<p style=font-size: 90px;>&#x2191</p>","4","2204","vertical","ydk","1","1","18",0.32432225,0.4633177,0.32432225,"NULL","5",0.13899545,1
"344","2023-01-25 21:49:19.708","725459","275","1","2","1","1","<p style=font-size: 90px;>&#x2191</p>","2","1249","vertical","ydk","1","2","20",0.27799043,0.55598134,0.18532679,"NULL","0",0.27799091,1
"345","2023-01-25 21:49:22.643","725459","276","4","3","1","3","<p style=font-size: 90px;>&#x2190</p>","5","1289","horizontal","ydk","1","3","11",-4.8e-07,0.41698588,0.13899498,"NULL","0",0.41698636,0
"346","2023-01-25 21:49:25.843","725459","277","5","3","2","4","<p style=font-size: 90px;>&#x2192</p>","4","1541","horizontal","ydk","2","3","1",0.18532679,0.4633177,-0.37065503,"NULL","5",0.27799091,0
"347","2023-01-25 21:49:29.204","725459","278","5","3","2","4","<p style=font-size: 90px;>&#x2192</p>","24","1697","horizontal","ydk","2","3","20",-0.46331866,-0.46331866,-0.37065503,"NULL","5",0,1
"348","2023-01-25 21:49:31.933","725459","279","2","1","2","2","<p style=font-size: 90px;>&#x2193</p>","13","1080","vertical","ydk","2","1","18",0.04633134,0.04633134,-0.0463323,"NULL","0",0,0
"349","2023-01-25 21:49:35.139","725459","280","1","2","1","1","<p style=font-size: 90px;>&#x2191</p>","14","1545","vertical","ydk","1","2","3",0.32432225,-4.8e-07,-0.27799139,"NULL","0",-0.32432273,0
"350","2023-01-25 21:49:37.755","725459","281","1","1","1","1","<p style=font-size: 90px;>&#x2191</p>","13","956","vertical","ydk","1","1","10",-0.27799139,0.04633134,-0.41698684,"NULL","1",0.32432273,1
"351","2023-01-25 21:49:40.059","725459","282","2","2","1","1","<p style=font-size: 90px;>&#x2191</p>","13","661","vertical","ydk","1","2","19",0.32432225,0.04633134,-0.0463323,"NULL","1",-0.27799091,0
"352","2023-01-25 21:49:44.043","725459","283","1","2","2","2","<p style=font-size: 90px;>&#x2193</p>","5","2334","vertical","ydk","2","2","10",0.32432225,0.41698588,-0.18532775,"NULL","0",0.09266363,0
"353","2023-01-25 21:49:46.778","725459","284","4","3","1","3","<p style=font-size: 90px;>&#x2190</p>","23","1079","horizontal","ydk","1","3","11",-0.32432321,-0.41698684,-0.46331866,"NULL","0",-0.0926636300000001,1
"354","2023-01-25 21:49:50.388","725459","285","4","3","2","4","<p style=font-size: 90px;>&#x2192</p>","24","1953","horizontal","ydk","2","3","6",-0.18532775,-0.46331866,-0.0463323,"NULL","0",-0.27799091,1
"355","2023-01-25 21:49:52.899","725459","286","5","2","2","2","<p style=font-size: 90px;>&#x2193</p>","14","869","vertical","ydk","2","2","9",-0.13899593,-4.8e-07,-0.46331866,"NULL","5",0.13899545,1
"356","2023-01-25 21:49:55.357","725459","287","5","1","2","2","<p style=font-size: 90px;>&#x2193</p>","5","805","vertical","ydk","2","1","11",0.27799043,0.41698588,-0.0463323,"NULL","5",0.13899545,0
"357","2023-01-25 21:49:58.179","725459","288","1","1","1","1","<p style=font-size: 90px;>&#x2191</p>","12","1176","vertical","ydk","1","1","11",-0.32432321,0.09266316,0.23165861,"NULL","1",0.41698637,0
"358","2023-01-25 21:50:01.602","725459","289","5","2","2","2","<p style=font-size: 90px;>&#x2193</p>","1","1768","vertical","ydk","2","2","20",0.27799043,0.60231412,-0.46331866,"NULL","5",0.32432369,0
"359","2023-01-25 21:50:04.891","725459","290","1","2","1","1","<p style=font-size: 90px;>&#x2191</p>","13","1632","vertical","ydk","1","2","22",-0.0463323,0.04633134,-0.13899593,"NULL","0",0.09266364,1
"360","2023-01-25 21:50:08.558","725459","291","2","2","1","1","<p style=font-size: 90px;>&#x2191</p>","15","2014","vertical","ydk","1","2","4",0.04633134,-0.0463323,-0.18532775,"NULL","1",-0.09266364,0
"361","2023-01-25 21:50:12.539","725459","292","2","1","1","1","<p style=font-size: 90px;>&#x2191</p>","22","2319","vertical","ydk","1","1","24",-0.41698684,-0.37065503,0.37065407,"NULL","0",0.04633181,0
"362","2023-01-25 21:50:21.685","725459","293","4","4","1","3","<p style=font-size: 90px;>&#x2190</p>","27","7491","horizontal","ydk","1","4","16",-0.41698684,-0.60231412,0.41698588,"NULL","1",-0.18532728,0
"363","2023-01-25 21:50:24.123","725459","294","5","2","1","1","<p style=font-size: 90px;>&#x2191</p>","22","797","vertical","ydk","1","2","7",-0.32432321,-0.37065503,-0.23165957,"NULL","5",-0.04633182,1
"364","2023-01-25 21:50:26.499","725459","295","5","4","2","4","<p style=font-size: 90px;>&#x2192</p>","15","717","horizontal","ydk","2","4","1",-0.27799139,-0.0463323,0.09266316,"NULL","5",0.23165909,0
"365","2023-01-25 21:50:29.563","725459","296","3","3","2","4","<p style=font-size: 90px;>&#x2192</p>","19","1401","horizontal","ydk","2","3","11",-0.13899593,-0.23165957,0.09266316,"NULL","1",-0.09266364,0
"366","2023-01-25 21:50:32.187","725459","297","5","4","2","4","<p style=font-size: 90px;>&#x2192</p>","15","980","horizontal","ydk","2","4","10",0.09266316,-0.0463323,-0.37065503,"NULL","5",-0.13899546,0
"367","2023-01-25 21:50:34.179","725459","298","2","1","2","2","<p style=font-size: 90px;>&#x2193</p>","15","352","vertical","ydk","2","1","3",0.04633134,-0.0463323,0.18532679,"NULL","0",-0.09266364,1
"368","2023-01-25 21:50:36.613","725459","299","2","1","2","2","<p style=font-size: 90px;>&#x2193</p>","15","778","vertical","ydk","2","1","14",-0.41698684,-0.0463323,0.23165861,"NULL","0",0.37065454,0
"369","2023-01-25 21:50:40.485","725459","300","1","2","1","1","<p style=font-size: 90px;>&#x2191</p>","8","2213","vertical","ydk","1","2","13",0.32432225,0.27799043,-0.32432321,"NULL","0",-0.04633182,0
"370","2023-01-25 21:50:43.836","725459","301","2","2","1","1","<p style=font-size: 90px;>&#x2191</p>","4","1695","vertical","ydk","1","2","19",-0.0463323,0.4633177,0.32432225,"NULL","1",0.50965,0
"371","2023-01-25 21:50:46.411","725459","302","5","2","1","1","<p style=font-size: 90px;>&#x2191</p>","3","912","vertical","ydk","1","2","24",0.4633177,0.50964952,0.37065407,"NULL","5",0.04633182,1
"372","2023-01-25 21:50:48.859","725459","303","2","1","2","2","<p style=font-size: 90px;>&#x2193</p>","15","791","vertical","ydk","2","1","24",-0.27799139,-0.0463323,0.04633134,"NULL","0",0.23165909,0
"373","2023-01-25 21:50:51.443","725459","304","3","4","2","4","<p style=font-size: 90px;>&#x2192</p>","21","919","horizontal","ydk","2","4","3",-0.09266412,-0.32432321,-0.23165957,"NULL","0",-0.23165909,1
"374","2023-01-25 21:50:53.985","725459","305","2","2","2","2","<p style=font-size: 90px;>&#x2193</p>","17","881","vertical","ydk","2","2","11",-0.13899593,-0.13899593,0.37065407,"NULL","1",0,0
"375","2023-01-25 21:50:57.369","725459","306","3","3","1","3","<p style=font-size: 90px;>&#x2190</p>","12","1739","horizontal","ydk","1","3","14",-4.8e-07,0.09266316,-0.41698684,"NULL","1",0.09266364,1
"376","2023-01-25 21:51:00.307","725459","307","5","1","1","1","<p style=font-size: 90px;>&#x2191</p>","3","1301","vertical","ydk","1","1","9",0.37065407,0.50964952,-0.09266412,"NULL","5",0.13899545,0
"377","2023-01-25 21:51:03.218","725459","308","5","3","2","4","<p style=font-size: 90px;>&#x2192</p>","8","1265","horizontal","ydk","2","3","11",0.37065407,0.27799043,-0.0463323,"NULL","5",-0.09266364,0
"378","2023-01-25 21:51:06.090","725459","309","4","3","1","3","<p style=font-size: 90px;>&#x2190</p>","1","1216","horizontal","ydk","1","3","14",-0.41698684,0.60231412,0.18532679,"NULL","0",1.01930096,0
"379","2023-01-25 21:51:10.667","725459","310","5","4","1","3","<p style=font-size: 90px;>&#x2190</p>","5","2920","horizontal","ydk","1","4","14",0.09266316,0.41698588,-0.13899593,"NULL","5",0.32432272,0
"380","2023-01-25 21:51:14.548","725459","311","4","3","1","3","<p style=font-size: 90px;>&#x2190</p>","8","2234","horizontal","ydk","1","3","23",0.18532679,0.27799043,-0.13899593,"NULL","0",0.09266364,0
"381","2023-01-25 21:51:17.619","725459","312","4","4","1","3","<p style=font-size: 90px;>&#x2190</p>","23","1414","horizontal","ydk","1","4","17",-0.27799139,-0.41698684,0.23165861,"NULL","1",-0.13899545,0
"382","2023-01-25 21:51:20.597","725459","313","1","1","1","1","<p style=font-size: 90px;>&#x2191</p>","18","1322","vertical","ydk","1","1","2",-0.13899593,-0.18532775,-0.41698684,"NULL","1",-0.04633182,1
"383","2023-01-25 21:51:22.650","725459","314","2","1","2","2","<p style=font-size: 90px;>&#x2193</p>","18","395","vertical","ydk","2","1","6",-0.27799139,-0.18532775,-0.41698684,"NULL","0",0.09266364,1
"384","2023-01-25 21:51:26.091","725459","315","4","3","1","3","<p style=font-size: 90px;>&#x2190</p>","3","1769","horizontal","ydk","1","3","4",0.4633177,0.50964952,0.4633177,"NULL","0",0.04633182,1
"385","2023-01-25 21:51:29.382","725459","316","4","4","2","4","<p style=font-size: 90px;>&#x2192</p>","11","1644","horizontal","ydk","2","4","9",0.04633134,0.13899498,0.4633177,"NULL","1",0.09266364,1
"386","2023-01-25 21:51:32.580","725459","317","4","4","1","3","<p style=font-size: 90px;>&#x2190</p>","20","1537","horizontal","ydk","1","4","18",-0.32432321,-0.27799139,-4.8e-07,"NULL","1",0.04633182,1
"387","2023-01-25 21:51:36.161","725459","318","4","4","1","3","<p style=font-size: 90px;>&#x2190</p>","16","1928","horizontal","ydk","1","4","10",-0.09266412,-0.09266412,0.27799043,"NULL","1",0,0
"388","2023-01-25 21:51:41.203","725459","319","4","4","1","3","<p style=font-size: 90px;>&#x2190</p>","19","3387","horizontal","ydk","1","4","25",-0.27799139,-0.23165957,-0.09266412,"NULL","1",0.04633182,1
"389","2023-01-25 21:51:43.955","725459","320","3","4","1","3","<p style=font-size: 90px;>&#x2190</p>","13","1099","horizontal","ydk","1","4","7",-0.0463323,0.04633134,-0.32432321,"NULL","0",0.09266364,1
"390","2023-01-25 21:51:47.403","725459","321","4","4","1","3","<p style=font-size: 90px;>&#x2190</p>","21","1796","horizontal","ydk","1","4","17",-0.46331866,-0.32432321,-0.46331866,"NULL","1",0.13899545,1
"391","2023-01-25 21:51:50.691","725459","322","5","4","2","4","<p style=font-size: 90px;>&#x2192</p>","6","1632","horizontal","ydk","2","4","3",0.32432225,0.37065407,-0.13899593,"NULL","5",0.04633182,0
"392","2023-01-25 21:51:55.253","725459","323","5","1","2","2","<p style=font-size: 90px;>&#x2193</p>","16","2899","vertical","ydk","2","1","12",-0.37065503,-0.09266412,-0.13899593,"NULL","5",0.27799091,1
"393","2023-01-25 21:51:58.546","725459","324","4","3","2","4","<p style=font-size: 90px;>&#x2192</p>","25","1635","horizontal","ydk","2","3","23",-0.32432321,-0.50965048,0.27799043,"NULL","0",-0.18532727,0
"394","2023-01-25 21:52:02.060","725459","325","2","1","1","1","<p style=font-size: 90px;>&#x2191</p>","24","1855","vertical","ydk","1","1","22",-4.8e-07,-0.46331866,-0.27799139,"NULL","0",-0.46331818,1
"395","2023-01-25 21:52:05.115","725459","326","3","3","1","3","<p style=font-size: 90px;>&#x2190</p>","20","1400","horizontal","ydk","1","3","8",-0.27799139,-0.27799139,0.27799043,"NULL","1",0,0
"396","2023-01-25 21:52:07.251","725459","327","5","4","2","4","<p style=font-size: 90px;>&#x2192</p>","20","483","horizontal","ydk","2","4","12",-0.41698684,-0.27799139,0.37065407,"NULL","5",0.13899545,0
"397","2023-01-25 21:52:09.826","725459","328","5","1","2","2","<p style=font-size: 90px;>&#x2193</p>","19","932","vertical","ydk","2","1","14",0.4633177,-0.23165957,-0.23165957,"NULL","5",-0.69497727,0
"398","2023-01-25 21:52:13.219","725459","329","5","1","2","2","<p style=font-size: 90px;>&#x2193</p>","17","1735","vertical","ydk","2","1","9",-0.18532775,-0.13899593,-0.41698684,"NULL","5",0.04633182,1
"399","2023-01-25 21:52:16.619","725459","330","5","1","1","1","<p style=font-size: 90px;>&#x2191</p>","14","1744","vertical","ydk","1","1","4",-0.23165957,-4.8e-07,0.04633134,"NULL","5",0.23165909,0
"400","2023-01-25 21:52:19.109","725459","331","5","2","1","1","<p style=font-size: 90px;>&#x2191</p>","16","824","vertical","ydk","1","2","13",-0.23165957,-0.09266412,-0.27799139,"NULL","5",0.13899545,1
"401","2023-01-25 21:52:21.924","725459","332","2","1","2","2","<p style=font-size: 90px;>&#x2193</p>","1","1138","vertical","ydk","2","1","1",0.4633177,-0.09266412,-0.46331866,"NULL","0",-0.55598182,0
"402","2023-01-25 21:52:24.765","725459","333","3","3","2","4","<p style=font-size: 90px;>&#x2192</p>","21","1178","horizontal","ydk","2","3","16",-0.0463323,-0.32432321,0.18532679,"NULL","1",-0.27799091,0
"403","2023-01-25 21:52:28.611","725459","334","2","2","2","2","<p style=font-size: 90px;>&#x2193</p>","10","2190","vertical","ydk","2","2","16",0.23165861,0.18532679,-0.0463323,"NULL","1",-0.04633182,0
"404","2023-01-25 21:52:34.051","725459","335","4","4","1","3","<p style=font-size: 90px;>&#x2190</p>","14","3787","horizontal","ydk","1","4","16",0.09266316,-4.8e-07,0.18532679,"NULL","1",-0.09266364,1
"405","2023-01-25 21:52:37.979","725459","336","5","1","2","2","<p style=font-size: 90px;>&#x2193</p>","20","2275","vertical","ydk","2","1","5",-0.13899593,-0.27799139,-0.46331866,"NULL","5",-0.13899546,1
"406","2023-01-25 21:52:40.138","725459","337","2","1","2","2","<p style=font-size: 90px;>&#x2193</p>","20","501","vertical","ydk","2","1","18",-0.09266412,-0.27799139,0.23165861,"NULL","0",-0.18532727,0
"407","2023-01-25 21:52:42.371","725459","338","5","1","2","2","<p style=font-size: 90px;>&#x2193</p>","20","581","vertical","ydk","2","1","14",-0.18532775,-0.27799139,0.41698588,"NULL","5",-0.09266364,0
"408","2023-01-25 21:52:44.891","725459","339","4","3","2","4","<p style=font-size: 90px;>&#x2192</p>","20","856","horizontal","ydk","2","3","5",-0.13899593,-0.27799139,-0.32432321,"NULL","0",-0.13899546,1
"409","2023-01-25 21:52:49.131","725459","340","3","4","2","4","<p style=font-size: 90px;>&#x2192</p>","15","2590","horizontal","ydk","2","4","19",0.13899498,-0.0463323,0.18532679,"NULL","0",-0.18532728,1
"410","2023-01-25 21:52:51.138","725459","341","2","2","1","1","<p style=font-size: 90px;>&#x2191</p>","15","362","vertical","ydk","1","2","10",-0.37065503,-0.0463323,-4.8e-07,"NULL","1",0.32432273,1
"411","2023-01-25 21:52:56.746","725459","342","5","2","1","1","<p style=font-size: 90px;>&#x2191</p>","17","3948","vertical","ydk","1","2","9",-0.18532775,-0.13899593,0.32432225,"NULL","5",0.04633182,0
"412","2023-01-25 21:52:59.239","725459","343","1","1","1","1","<p style=font-size: 90px;>&#x2191</p>","5","838","vertical","ydk","1","1","20",0.41698588,0.41698588,0.23165861,"NULL","1",0,1
"413","2023-01-25 21:53:02.331","725459","344","3","3","2","4","<p style=font-size: 90px;>&#x2192</p>","14","1438","horizontal","ydk","2","3","8",-4.8e-07,-4.8e-07,-0.18532775,"NULL","1",0,1
"414","2023-01-25 21:53:05.298","725459","345","4","3","1","3","<p style=font-size: 90px;>&#x2190</p>","13","1315","horizontal","ydk","1","3","24",0.09266316,0.04633134,-0.23165957,"NULL","0",-0.04633182,0
"415","2023-01-25 21:53:08.018","725459","346","5","4","2","4","<p style=font-size: 90px;>&#x2192</p>","14","1062","horizontal","ydk","2","4","24",0.04633134,-4.8e-07,0.37065407,"NULL","5",-0.04633182,1
"416","2023-01-25 21:53:10.163","725459","347","3","3","2","4","<p style=font-size: 90px;>&#x2192</p>","14","474","horizontal","ydk","2","3","20",0.04633134,-4.8e-07,0.09266316,"NULL","1",-0.04633182,1
"417","2023-01-25 21:53:13.364","725459","348","4","3","2","4","<p style=font-size: 90px;>&#x2192</p>","19","1537","horizontal","ydk","2","3","11",-0.13899593,-0.23165957,0.13899498,"NULL","0",-0.09266364,0
"418","2023-01-25 21:53:17.970","725459","349","5","3","2","4","<p style=font-size: 90px;>&#x2192</p>","12","2955","horizontal","ydk","2","3","11",0.23165861,0.09266316,0.09266316,"NULL","5",-0.13899545,1
"419","2023-01-25 21:53:23.884","725459","350","2","2","1","1","<p style=font-size: 90px;>&#x2191</p>","7","4254","vertical","ydk","1","2","4",-0.23165957,0.32432225,0.04633134,"NULL","1",0.55598182,0
"420","2023-01-25 21:53:27.987","725459","351","1","1","2","2","<p style=font-size: 90px;>&#x2193</p>","7","2448","vertical","ydk","2","1","3",0.09266316,0.32432225,0.32432225,"NULL","1",0.23165909,1
"421","2023-01-25 21:53:31.034","725459","352","2","2","1","1","<p style=font-size: 90px;>&#x2191</p>","23","1384","vertical","ydk","1","2","9",-0.32432321,-0.41698684,-0.37065503,"NULL","1",-0.0926636300000001,1
"422","2023-01-25 21:53:36.404","725459","353","5","3","1","3","<p style=font-size: 90px;>&#x2190</p>","17","3709","horizontal","ydk","1","3","6",-0.13899593,-0.13899593,-0.46331866,"NULL","5",0,1
"423","2023-01-25 21:53:40.099","725459","354","2","2","1","1","<p style=font-size: 90px;>&#x2191</p>","7","2025","vertical","ydk","1","2","5",0.37065407,0.32432225,0.13899498,"NULL","1",-0.04633182,1
"424","2023-01-25 21:53:43.388","725459","355","4","4","2","4","<p style=font-size: 90px;>&#x2192</p>","25","1642","horizontal","ydk","2","4","10",-0.46331866,-0.50965048,0.04633134,"NULL","1",-0.04633182,0
"425","2023-01-25 21:53:45.729","725459","356","3","3","2","4","<p style=font-size: 90px;>&#x2192</p>","16","684","horizontal","ydk","2","3","5",-0.18532775,-0.09266412,-0.18532775,"NULL","1",0.09266363,1
"426","2023-01-25 21:53:50.970","725459","357","5","3","1","3","<p style=font-size: 90px;>&#x2190</p>","4","3576","horizontal","ydk","1","3","10",0.23165861,0.4633177,0.27799043,"NULL","5",0.23165909,1
"427","2023-01-25 21:53:53.883","725459","358","5","4","2","4","<p style=font-size: 90px;>&#x2192</p>","17","1253","horizontal","ydk","2","4","1",0.32432225,-0.13899593,-0.0463323,"NULL","5",-0.46331818,0
"428","2023-01-25 21:53:57.340","725459","359","4","3","1","3","<p style=font-size: 90px;>&#x2190</p>","14","1810","horizontal","ydk","1","3","25",-0.18532775,-4.8e-07,-0.23165957,"NULL","0",0.18532727,1
"429","2023-01-25 21:53:59.707","725459","360","5","2","1","1","<p style=font-size: 90px;>&#x2191</p>","14","709","vertical","ydk","1","2","15",0.09266316,-4.8e-07,0.4633177,"NULL","5",-0.09266364,1
"430","2023-01-25 21:54:04.482","725459","361","4","4","2","4","<p style=font-size: 90px;>&#x2192</p>","12","3096","horizontal","ydk","2","4","17",0.37065407,0.09266316,0.4633177,"NULL","1",-0.27799091,1
"431","2023-01-25 21:54:07.523","725459","362","5","4","1","3","<p style=font-size: 90px;>&#x2190</p>","11","1368","horizontal","ydk","1","4","25",-0.32432321,0.13899498,0.13899498,"NULL","5",0.46331819,0
"432","2023-01-25 21:54:09.938","725459","363","5","1","1","1","<p style=font-size: 90px;>&#x2191</p>","11","760","vertical","ydk","1","1","10",-0.13899593,0.13899498,-4.8e-07,"NULL","5",0.27799091,1
"433","2023-01-25 21:54:13.362","725459","364","1","2","2","2","<p style=font-size: 90px;>&#x2193</p>","3","1768","vertical","ydk","2","2","4",0.37065407,0.50964952,0.41698588,"NULL","0",0.13899545,1
"434","2023-01-25 21:54:16.282","725459","365","4","4","1","3","<p style=font-size: 90px;>&#x2190</p>","11","1277","horizontal","ydk","1","4","24",-0.32432321,0.13899498,-0.32432321,"NULL","1",0.46331819,1
"435","2023-01-25 21:54:18.609","725459","366","3","3","1","3","<p style=font-size: 90px;>&#x2190</p>","6","680","horizontal","ydk","1","3","15",-0.37065503,0.37065407,-0.27799139,"NULL","1",0.7413091,1
"436","2023-01-25 21:54:23.627","725459","367","4","3","1","3","<p style=font-size: 90px;>&#x2190</p>","6","3346","horizontal","ydk","1","3","19",0.37065407,0.37065407,0.09266316,"NULL","0",0,1
"437","2023-01-25 21:54:26.626","725459","368","2","2","2","2","<p style=font-size: 90px;>&#x2193</p>","10","1356","vertical","ydk","2","2","7",0.18532679,0.18532679,-4.8e-07,"NULL","1",0,0
"438","2023-01-25 21:54:30.939","725459","369","5","3","1","3","<p style=font-size: 90px;>&#x2190</p>","19","2645","horizontal","ydk","1","3","24",-0.0463323,-0.23165957,0.09266316,"NULL","5",-0.18532727,0
"439","2023-01-25 21:54:33.234","725459","370","5","2","2","2","<p style=font-size: 90px;>&#x2193</p>","18","643","vertical","ydk","2","2","3",0.13899498,-0.18532775,-0.23165957,"NULL","5",-0.32432273,0
"440","2023-01-25 21:54:36.668","725459","371","1","1","1","1","<p style=font-size: 90px;>&#x2191</p>","18","1774","vertical","ydk","1","1","22",-0.18532775,-0.18532775,0.27799043,"NULL","1",0,0
"441","2023-01-25 21:54:43.876","725459","372","5","2","2","2","<p style=font-size: 90px;>&#x2193</p>","21","5530","vertical","ydk","2","2","14",-0.09266412,-0.32432321,0.23165861,"NULL","5",-0.23165909,0
"442","2023-01-25 21:54:49.259","725459","373","5","2","2","2","<p style=font-size: 90px;>&#x2193</p>","4","3724","vertical","ydk","2","2","24",0.18532679,0.4633177,-0.09266412,"NULL","5",0.27799091,0
"443","2023-01-25 21:54:53.491","725459","374","5","2","1","1","<p style=font-size: 90px;>&#x2191</p>","6","2570","vertical","ydk","1","2","2",0.13899498,0.37065407,-0.37065503,"NULL","5",0.23165909,0
"444","2023-01-25 21:54:56.163","725459","375","4","4","2","4","<p style=font-size: 90px;>&#x2192</p>","20","1019","horizontal","ydk","2","4","25",0.13899498,-0.27799139,-4.8e-07,"NULL","1",-0.41698637,0
"445","2023-01-25 21:54:58.074","725459","376","2","2","1","1","<p style=font-size: 90px;>&#x2191</p>","19","256","vertical","ydk","1","2","10",-4.8e-07,-0.23165957,-0.32432321,"NULL","1",-0.23165909,1
"446","2023-01-25 21:55:00.178","725459","377","3","4","2","4","<p style=font-size: 90px;>&#x2192</p>","19","445","horizontal","ydk","2","4","1",-0.37065503,-0.23165957,0.41698588,"NULL","0",0.13899546,0
"447","2023-01-25 21:55:06.955","725459","378","3","4","1","3","<p style=font-size: 90px;>&#x2190</p>","23","5115","horizontal","ydk","1","4","21",-4.8e-07,-0.41698684,0.09266316,"NULL","0",-0.41698636,0
"448","2023-01-25 21:55:10.138","725459","379","5","4","2","4","<p style=font-size: 90px;>&#x2192</p>","14","1520","horizontal","ydk","2","4","14",0.13899498,-0.41698684,-0.41698684,"NULL","5",-0.55598182,0
"449","2023-01-25 21:55:12.858","725459","380","1","1","2","2","<p style=font-size: 90px;>&#x2193</p>","15","1056","vertical","ydk","2","1","9",-0.0463323,-0.0463323,0.4633177,"NULL","1",0,0
"450","2023-01-25 21:55:16.004","725459","381","3","3","2","4","<p style=font-size: 90px;>&#x2192</p>","13","1490","horizontal","ydk","2","3","12",0.4633177,0.04633134,-4.8e-07,"NULL","1",-0.41698636,0
"451","2023-01-25 21:55:19.273","725459","382","2","1","2","2","<p style=font-size: 90px;>&#x2193</p>","14","1616","vertical","ydk","2","1","2",-0.09266412,-4.8e-07,0.09266316,"NULL","0",0.09266364,0
"452","2023-01-25 21:55:25.546","725459","383","3","3","2","4","<p style=font-size: 90px;>&#x2192</p>","21","4600","horizontal","ydk","2","3","12",-4.8e-07,-0.32432321,0.23165861,"NULL","1",-0.32432273,0
"453","2023-01-25 21:55:29.620","725459","384","3","4","1","3","<p style=font-size: 90px;>&#x2190</p>","21","2414","horizontal","ydk","1","4","16",-0.27799139,-0.32432321,0.13899498,"NULL","0",-0.04633182,0
"454","2023-01-25 21:55:33.569","725459","385","5","4","2","4","<p style=font-size: 90px;>&#x2192</p>","21","2288","horizontal","ydk","2","4","24",-0.46331866,-0.32432321,0.41698588,"NULL","5",0.13899545,0
"455","2023-01-25 21:55:37.362","725459","386","3","4","1","3","<p style=font-size: 90px;>&#x2190</p>","21","2122","horizontal","ydk","1","4","1",-0.18532775,-0.32432321,0.32432225,"NULL","0",-0.13899546,0
"456","2023-01-25 21:55:41.658","725459","387","3","3","1","3","<p style=font-size: 90px;>&#x2190</p>","5","2625","horizontal","ydk","1","3","21",0.4633177,0.41698588,-0.18532775,"NULL","1",-0.04633182,0
"457","2023-01-25 21:55:45.450","725459","388","3","4","1","3","<p style=font-size: 90px;>&#x2190</p>","2","2128","horizontal","ydk","1","4","5",0.32432225,0.55598134,0.41698588,"NULL","0",0.23165909,1
"458","2023-01-25 21:55:48.850","725459","389","4","3","2","4","<p style=font-size: 90px;>&#x2192</p>","24","1739","horizontal","ydk","2","3","23",-0.41698684,-0.46331866,0.32432225,"NULL","0",-0.04633182,0
"459","2023-01-25 21:55:51.850","725459","390","5","4","2","4","<p style=font-size: 90px;>&#x2192</p>","5","1350","horizontal","ydk","2","4","25",0.41698588,0.41698588,0.13899498,"NULL","5",0,1
"460","2023-01-25 21:55:55.747","725459","391","5","4","1","3","<p style=font-size: 90px;>&#x2190</p>","17","2202","horizontal","ydk","1","4","13",-0.13899593,-0.13899593,0.37065407,"NULL","5",0,0
"461","2023-01-25 21:55:58.617","725459","392","5","4","1","3","<p style=font-size: 90px;>&#x2190</p>","4","1216","horizontal","ydk","1","4","4",0.41698588,-0.13899593,-0.32432321,"NULL","5",-0.55598181,0
"462","2023-01-25 21:56:02.250","725459","393","5","2","1","1","<p style=font-size: 90px;>&#x2191</p>","16","1968","vertical","ydk","1","2","4",-0.37065503,-0.09266412,0.04633134,"NULL","5",0.27799091,0
"463","2023-01-25 21:56:04.841","725459","394","5","1","1","1","<p style=font-size: 90px;>&#x2191</p>","14","944","vertical","ydk","1","1","16",-0.13899593,-4.8e-07,0.04633134,"NULL","5",0.13899545,0
"464","2023-01-25 21:56:08.378","725459","395","5","4","2","4","<p style=font-size: 90px;>&#x2192</p>","14","1880","horizontal","ydk","2","4","4",0.09266316,-4.8e-07,-0.46331866,"NULL","5",-0.09266364,0
"465","2023-01-25 21:56:11.731","725459","396","4","4","2","4","<p style=font-size: 90px;>&#x2192</p>","10","1693","horizontal","ydk","2","4","10",0.27799043,0.18532679,-0.23165957,"NULL","1",-0.09266364,0
"466","2023-01-25 21:56:16.042","725459","397","5","3","2","4","<p style=font-size: 90px;>&#x2192</p>","11","2640","horizontal","ydk","2","3","24",0.23165861,0.13899498,-0.09266412,"NULL","5",-0.09266363,0
"467","2023-01-25 21:56:18.765","725459","398","2","1","1","1","<p style=font-size: 90px;>&#x2191</p>","4","1069","vertical","ydk","1","1","1",0.41698588,0.4633177,-0.32432321,"NULL","0",0.04633182,0
"468","2023-01-25 21:56:21.290","725459","399","5","3","1","3","<p style=font-size: 90px;>&#x2190</p>","5","856","horizontal","ydk","1","3","2",0.41698588,0.41698588,0.23165861,"NULL","5",0,1
"469","2023-01-25 21:56:23.330","725459","400","5","2","2","2","<p style=font-size: 90px;>&#x2193</p>","4","384","vertical","ydk","2","2","9",0.04633134,0.4633177,0.23165861,"NULL","5",0.41698636,1
"470","NULL","725459","NULL","NULL","NULL","NULL","NULL","NULL","NULL","NULL","NULL","fullscreen","NULL","NULL","NULL",NA,NA,NA,"NULL","1",NA,1
"533","2023-01-30 21:30:53.468","540627","1","5","4","1","3","<p style=font-size: 90px;>&#x2190</p>","8","3320","horizontal","ydk","1","4","12",0.23165861,0.27799043,-0.23165957,"NULL","5",0.04633182,0
"534","2023-01-30 21:30:58.661","540627","2","3","4","2","4","<p style=font-size: 90px;>&#x2192</p>","19","3417","horizontal","ydk","2","4","22",-0.18532775,-0.23165957,-0.09266412,"NULL","0",-0.04633182,1
"535","2023-01-30 21:31:03.207","540627","3","4","3","2","4","<p style=font-size: 90px;>&#x2192</p>","12","2758","horizontal","ydk","2","3","24",0.27799043,0.09266316,-0.27799139,"NULL","0",-0.18532727,0
"536","2023-01-30 21:31:11.691","540627","4","1","1","2","2","<p style=font-size: 90px;>&#x2193</p>","20","6677","vertical","ydk","2","1","12",-0.18532775,-0.27799139,-0.32432321,"NULL","1",-0.09266364,1
"537","2023-01-30 21:31:16.169","540627","5","2","2","1","1","<p style=font-size: 90px;>&#x2191</p>","8","2673","vertical","ydk","1","2","13",0.04633134,0.27799043,-0.0463323,"NULL","1",0.23165909,0
"538","2023-01-30 21:31:22.251","540627","6","1","1","1","1","<p style=font-size: 90px;>&#x2191</p>","13","4309","vertical","ydk","1","1","14",-0.32432321,0.04633134,-0.41698684,"NULL","1",0.37065455,1
"539","2023-01-30 21:31:25.563","540627","7","1","1","2","2","<p style=font-size: 90px;>&#x2193</p>","6","1515","vertical","ydk","2","1","11",0.41698588,0.37065407,-0.41698684,"NULL","1",-0.04633181,0
"540","2023-01-30 21:31:28.111","540627","8","4","4","2","4","<p style=font-size: 90px;>&#x2192</p>","9","750","horizontal","ydk","2","4","4",-0.18532775,0.23165861,-4.8e-07,"NULL","1",0.41698636,1
"541","2023-01-30 21:31:31.607","540627","9","5","4","2","4","<p style=font-size: 90px;>&#x2192</p>","5","1720","horizontal","ydk","2","4","9",0.4633177,0.41698588,-0.0463323,"NULL","5",-0.04633182,0
"542","2023-01-30 21:31:36.226","540627","10","5","4","1","3","<p style=font-size: 90px;>&#x2190</p>","7","2801","horizontal","ydk","1","4","24",0.13899498,0.32432225,-0.37065503,"NULL","5",0.18532727,0
"543","2023-01-30 21:31:39.751","540627","11","4","3","2","4","<p style=font-size: 90px;>&#x2192</p>","13","1743","horizontal","ydk","2","3","5",0.27799043,0.04633134,0.41698588,"NULL","0",-0.23165909,1
"544","2023-01-30 21:31:42.545","540627","12","4","4","2","4","<p style=font-size: 90px;>&#x2192</p>","13","1018","horizontal","ydk","2","4","13",-4.8e-07,0.04633134,0.13899498,"NULL","1",0.04633182,0
"545","2023-01-30 21:31:46.939","540627","13","1","2","2","2","<p style=font-size: 90px;>&#x2193</p>","21","2593","vertical","ydk","2","2","14",-0.23165957,-0.32432321,0.23165861,"NULL","0",-0.09266364,0
"546","2023-01-30 21:31:53.736","540627","14","4","3","1","3","<p style=font-size: 90px;>&#x2190</p>","10","5013","horizontal","ydk","1","3","12",-0.0463323,0.18532679,-0.41698684,"NULL","0",0.23165909,1
"547","2023-01-30 21:31:58.245","540627","15","5","4","1","3","<p style=font-size: 90px;>&#x2190</p>","22","2725","horizontal","ydk","1","4","1",-0.18532775,-0.37065503,0.09266316,"NULL","5",-0.18532728,0
"548","2023-01-30 21:32:01.549","540627","16","1","1","1","1","<p style=font-size: 90px;>&#x2191</p>","23","1512","vertical","ydk","1","1","5",0.09266316,-0.41698684,0.13899498,"NULL","1",-0.50965,1
"549","2023-01-30 21:32:05.940","540627","17","2","1","2","2","<p style=font-size: 90px;>&#x2193</p>","14","2611","vertical","ydk","2","1","19",-0.13899593,-4.8e-07,-0.37065503,"NULL","0",0.13899545,1
"550","2023-01-30 21:32:08.333","540627","18","5","4","2","4","<p style=font-size: 90px;>&#x2192</p>","14","596","horizontal","ydk","2","4","7",-0.09266412,-4.8e-07,0.32432225,"NULL","5",0.09266364,0
"551","2023-01-30 21:32:10.697","540627","19","1","1","2","2","<p style=font-size: 90px;>&#x2193</p>","14","583","vertical","ydk","2","1","17",-0.41698684,-4.8e-07,-0.41698684,"NULL","1",0.41698636,1
"552","2023-01-30 21:32:14.571","540627","20","5","1","1","1","<p style=font-size: 90px;>&#x2191</p>","6","2078","vertical","ydk","1","1","25",0.37065407,0.37065407,-0.13899593,"NULL","5",0,0
"553","2023-01-30 21:32:17.774","540627","21","5","2","2","2","<p style=font-size: 90px;>&#x2193</p>","7","1423","vertical","ydk","2","2","23",-0.41698684,0.32432225,-0.23165957,"NULL","5",0.74130909,1
"554","2023-01-30 21:32:20.354","540627","22","5","1","2","2","<p style=font-size: 90px;>&#x2193</p>","14","802","vertical","ydk","2","1","23",-0.09266412,-4.8e-07,-0.0463323,"NULL","5",0.09266364,1
"555","2023-01-30 21:32:22.654","540627","23","2","2","2","2","<p style=font-size: 90px;>&#x2193</p>","16","518","vertical","ydk","2","2","21",-0.27799139,-0.09266412,-0.37065503,"NULL","1",0.18532727,1
"556","2023-01-30 21:32:27.615","540627","24","3","4","1","3","<p style=font-size: 90px;>&#x2190</p>","8","3162","horizontal","ydk","1","4","25",0.37065407,0.27799043,0.41698588,"NULL","0",-0.09266364,1
"557","2023-01-30 21:32:30.895","540627","25","5","3","2","4","<p style=font-size: 90px;>&#x2192</p>","6","1491","horizontal","ydk","2","3","10",0.18532679,0.37065407,0.18532679,"NULL","5",0.18532728,1
"558","2023-01-30 21:32:35.017","540627","26","1","2","1","1","<p style=font-size: 90px;>&#x2191</p>","25","2319","vertical","ydk","1","2","20",-0.32432321,-0.50965048,-0.09266412,"NULL","0",-0.18532727,1
"559","2023-01-30 21:32:37.603","540627","27","5","2","1","1","<p style=font-size: 90px;>&#x2191</p>","25","819","vertical","ydk","1","2","24",-0.46331866,-0.50965048,0.04633134,"NULL","5",-0.04633182,0
"560","2023-01-30 21:32:40.289","540627","28","5","2","1","1","<p style=font-size: 90px;>&#x2191</p>","26","889","vertical","ydk","1","2","24",-0.18532775,-0.5559823,0.23165861,"NULL","5",-0.37065455,0
"561","2023-01-30 21:32:43.833","540627","29","1","1","1","1","<p style=font-size: 90px;>&#x2191</p>","22","1737","vertical","ydk","1","1","12",0.37065407,-0.37065503,-0.41698684,"NULL","1",-0.7413091,0
"562","2023-01-30 21:32:48.487","540627","30","5","4","2","4","<p style=font-size: 90px;>&#x2192</p>","2","2861","horizontal","ydk","2","4","3",0.09266316,0.55598134,0.23165861,"NULL","5",0.46331818,1
"563","2023-01-30 21:32:51.351","540627","31","3","3","1","3","<p style=font-size: 90px;>&#x2190</p>","2","1052","horizontal","ydk","1","3","23",0.09266316,0.55598134,-0.18532775,"NULL","1",0.46331818,0
"564","2023-01-30 21:32:54.771","540627","32","5","3","2","4","<p style=font-size: 90px;>&#x2192</p>","26","1641","horizontal","ydk","2","3","19",-0.09266412,-0.5559823,0.13899498,"NULL","5",-0.46331818,0
"565","2023-01-30 21:32:57.788","540627","33","5","3","2","4","<p style=font-size: 90px;>&#x2192</p>","26","1236","horizontal","ydk","2","3","1",-0.37065503,-0.5559823,0.37065407,"NULL","5",-0.18532727,0
"566","2023-01-30 21:33:00.599","540627","34","3","4","1","3","<p style=font-size: 90px;>&#x2190</p>","13","1024","horizontal","ydk","1","4","22",-4.8e-07,0.04633134,-0.46331866,"NULL","0",0.04633182,1
"567","2023-01-30 21:33:03.679","540627","35","2","2","2","2","<p style=font-size: 90px;>&#x2193</p>","26","1289","vertical","ydk","2","2","11",-0.46331866,-0.5559823,0.04633134,"NULL","1",-0.09266364,0
"568","2023-01-30 21:33:06.387","540627","36","3","3","2","4","<p style=font-size: 90px;>&#x2192</p>","25","918","horizontal","ydk","2","3","20",-0.09266412,-0.50965048,0.09266316,"NULL","1",-0.41698636,0
"569","2023-01-30 21:33:09.991","540627","37","5","2","1","1","<p style=font-size: 90px;>&#x2191</p>","1","1822","vertical","ydk","1","2","2",0.41698588,0.60231412,0.27799043,"NULL","5",0.18532824,1
"570","2023-01-30 21:33:14.538","540627","38","5","3","1","3","<p style=font-size: 90px;>&#x2190</p>","11","2773","horizontal","ydk","1","3","16",0.27799043,0.13899498,-0.23165957,"NULL","5",-0.13899545,0
"571","2023-01-30 21:33:17.903","540627","39","2","1","1","1","<p style=font-size: 90px;>&#x2191</p>","6","1573","vertical","ydk","1","1","22",0.13899498,0.37065407,0.32432225,"NULL","0",0.23165909,1
"572","2023-01-30 21:33:20.559","540627","40","4","4","1","3","<p style=font-size: 90px;>&#x2190</p>","12","874","horizontal","ydk","1","4","15",-4.8e-07,0.09266316,-0.0463323,"NULL","1",0.09266364,1
"573","2023-01-30 21:33:22.865","540627","41","5","1","1","1","<p style=font-size: 90px;>&#x2191</p>","15","520","vertical","ydk","1","1","9",-0.18532775,-0.0463323,-0.13899593,"NULL","5",0.13899545,1
"574","2023-01-30 21:33:25.235","540627","42","1","1","2","2","<p style=font-size: 90px;>&#x2193</p>","16","596","vertical","ydk","2","1","24",-4.8e-07,-0.09266412,-0.27799139,"NULL","1",-0.09266364,1
"575","2023-01-30 21:33:27.365","540627","43","2","1","1","1","<p style=font-size: 90px;>&#x2191</p>","16","352","vertical","ydk","1","1","10",0.18532679,-0.09266412,-0.13899593,"NULL","0",-0.27799091,0
"576","2023-01-30 21:33:29.975","540627","44","5","4","2","4","<p style=font-size: 90px;>&#x2192</p>","25","842","horizontal","ydk","2","4","12",-0.41698684,-0.50965048,0.04633134,"NULL","5",-0.09266364,0
"577","2023-01-30 21:33:33.092","540627","45","2","1","1","1","<p style=font-size: 90px;>&#x2191</p>","6","1342","vertical","ydk","1","1","17",0.18532679,0.37065407,0.27799043,"NULL","0",0.18532728,1
"578","2023-01-30 21:33:36.620","540627","46","5","3","2","4","<p style=font-size: 90px;>&#x2192</p>","24","1733","horizontal","ydk","2","3","2",-0.27799139,-0.46331866,0.4633177,"NULL","5",-0.18532727,0
"579","2023-01-30 21:33:39.931","540627","47","5","1","1","1","<p style=font-size: 90px;>&#x2191</p>","5","1531","vertical","ydk","1","1","13",-0.46331866,0.41698588,0.4633177,"NULL","5",0.88030454,0
"580","2023-01-30 21:33:42.725","540627","48","5","3","2","4","<p style=font-size: 90px;>&#x2192</p>","2","1013","horizontal","ydk","2","3","4",0.4633177,0.55598134,0.04633134,"NULL","5",0.09266364,1
"581","2023-01-30 21:33:45.819","540627","49","1","2","1","1","<p style=font-size: 90px;>&#x2191</p>","3","1297","vertical","ydk","1","2","21",0.27799043,0.50964952,0.37065407,"NULL","0",0.23165909,1
"582","2023-01-30 21:33:48.645","540627","50","3","3","2","4","<p style=font-size: 90px;>&#x2192</p>","25","1037","horizontal","ydk","2","3","14",-0.27799139,-0.50965048,-0.09266412,"NULL","1",-0.23165909,1
"583","2023-01-30 21:33:52.311","540627","51","5","3","2","4","<p style=font-size: 90px;>&#x2192</p>","2","1895","horizontal","ydk","2","3","4",0.09266316,0.55598134,-0.37065503,"NULL","5",0.46331818,0
"584","2023-01-30 21:33:55.073","540627","52","3","3","2","4","<p style=font-size: 90px;>&#x2192</p>","4","967","horizontal","ydk","2","3","5",0.37065407,0.4633177,-0.13899593,"NULL","1",0.09266363,0
"585","2023-01-30 21:33:57.567","540627","53","5","3","2","4","<p style=font-size: 90px;>&#x2192</p>","4","710","horizontal","ydk","2","3","3",0.27799043,0.4633177,0.04633134,"NULL","5",0.18532727,1
"586","2023-01-30 21:33:59.959","540627","54","2","2","2","2","<p style=font-size: 90px;>&#x2193</p>","4","581","vertical","ydk","2","2","5",-4.8e-07,0.4633177,0.13899498,"NULL","1",0.46331818,0
"587","2023-01-30 21:34:03.850","540627","55","4","4","2","4","<p style=font-size: 90px;>&#x2192</p>","16","2090","horizontal","ydk","2","4","1",0.09266316,-0.09266412,-0.13899593,"NULL","1",-0.18532728,0
"588","2023-01-30 21:34:06.583","540627","56","4","4","2","4","<p style=font-size: 90px;>&#x2192</p>","26","946","horizontal","ydk","2","4","7",-0.37065503,-0.5559823,0.18532679,"NULL","1",-0.18532727,0
"589","2023-01-30 21:34:11.259","540627","57","3","4","1","3","<p style=font-size: 90px;>&#x2190</p>","6","2872","horizontal","ydk","1","4","1",-0.18532775,0.37065407,0.18532679,"NULL","0",0.55598182,0
"590","2023-01-30 21:34:15.079","540627","58","3","3","1","3","<p style=font-size: 90px;>&#x2190</p>","25","2050","horizontal","ydk","1","3","10",-0.18532775,-0.50965048,0.41698588,"NULL","1",-0.32432273,0
"591","2023-01-30 21:34:17.441","540627","59","1","1","1","1","<p style=font-size: 90px;>&#x2191</p>","25","586","vertical","ydk","1","1","2",-0.37065503,-0.50965048,-0.0463323,"NULL","1",-0.13899545,1
"592","2023-01-30 21:34:20.389","540627","60","5","3","1","3","<p style=font-size: 90px;>&#x2190</p>","23","1160","horizontal","ydk","1","3","7",-0.32432321,-0.41698684,-0.37065503,"NULL","5",-0.0926636300000001,1
"593","2023-01-30 21:34:24.502","540627","61","4","3","1","3","<p style=font-size: 90px;>&#x2190</p>","23","2310","horizontal","ydk","1","3","14",0.27799043,-0.41698684,-0.27799139,"NULL","0",-0.69497727,0
"594","2023-01-30 21:34:26.825","540627","62","3","4","1","3","<p style=font-size: 90px;>&#x2190</p>","23","524","horizontal","ydk","1","4","17",0.04633134,-0.41698684,0.13899498,"NULL","0",-0.46331818,1
"595","2023-01-30 21:34:29.402","540627","63","5","3","2","4","<p style=font-size: 90px;>&#x2192</p>","16","778","horizontal","ydk","2","3","4",-0.0463323,-0.09266412,0.4633177,"NULL","5",-0.04633182,0
"596","2023-01-30 21:34:31.471","540627","64","3","4","1","3","<p style=font-size: 90px;>&#x2190</p>","16","266","horizontal","ydk","1","4","20",-0.18532775,-0.09266412,-0.23165957,"NULL","0",0.09266363,1
"597","2023-01-30 21:34:34.511","540627","65","1","2","1","1","<p style=font-size: 90px;>&#x2191</p>","24","1264","vertical","ydk","1","2","14",-0.46331866,-0.46331866,-0.41698684,"NULL","0",0,1
"598","2023-01-30 21:34:36.789","540627","66","3","4","2","4","<p style=font-size: 90px;>&#x2192</p>","25","494","horizontal","ydk","2","4","1",-0.27799139,-0.50965048,-0.27799139,"NULL","0",-0.23165909,1
"599","2023-01-30 21:34:38.919","540627","67","4","3","2","4","<p style=font-size: 90px;>&#x2192</p>","25","328","horizontal","ydk","2","3","2",-0.13899593,-0.50965048,0.09266316,"NULL","0",-0.37065455,0
"600","2023-01-30 21:34:41.549","540627","68","5","4","2","4","<p style=font-size: 90px;>&#x2192</p>","4","834","horizontal","ydk","2","4","6",0.27799043,0.4633177,-0.46331866,"NULL","5",0.18532727,0
"601","2023-01-30 21:34:44.373","540627","69","2","2","2","2","<p style=font-size: 90px;>&#x2193</p>","16","1041","vertical","ydk","2","2","22",-0.23165957,-0.09266412,0.18532679,"NULL","1",0.13899545,0
"602","2023-01-30 21:34:47.314","540627","70","5","3","1","3","<p style=font-size: 90px;>&#x2190</p>","24","1150","horizontal","ydk","1","3","4",0.13899498,-0.46331866,-0.23165957,"NULL","5",-0.60231364,0
"603","2023-01-30 21:34:50.069","540627","71","1","1","2","2","<p style=font-size: 90px;>&#x2193</p>","15","948","vertical","ydk","2","1","20",0.41698588,-0.0463323,0.09266316,"NULL","1",-0.46331818,1
"604","2023-01-30 21:34:52.977","540627","72","1","2","2","2","<p style=font-size: 90px;>&#x2193</p>","3","1108","vertical","ydk","2","2","25",-0.37065503,0.50964952,0.4633177,"NULL","0",0.88030455,0
"605","2023-01-30 21:34:55.377","540627","73","3","4","2","4","<p style=font-size: 90px;>&#x2192</p>","3","607","horizontal","ydk","2","4","5",0.41698588,0.50964952,0.13899498,"NULL","0",0.09266364,1
"606","2023-01-30 21:34:58.843","540627","74","2","1","1","1","<p style=font-size: 90px;>&#x2191</p>","3","1673","vertical","ydk","1","1","11",0.13899498,0.50964952,-0.18532775,"NULL","0",0.37065454,0
"607","2023-01-30 21:35:02.391","540627","75","2","2","1","1","<p style=font-size: 90px;>&#x2191</p>","11","1751","vertical","ydk","1","2","2",-0.32432321,0.13899498,-0.41698684,"NULL","1",0.46331819,1
"608","2023-01-30 21:35:05.655","540627","76","5","4","1","3","<p style=font-size: 90px;>&#x2190</p>","5","1474","horizontal","ydk","1","4","9",0.18532679,0.41698588,-0.27799139,"NULL","5",0.23165909,0
"609","2023-01-30 21:35:08.549","540627","77","1","1","1","1","<p style=font-size: 90px;>&#x2191</p>","5","1107","vertical","ydk","1","1","10",0.23165861,0.41698588,-4.8e-07,"NULL","1",0.18532727,0
"610","2023-01-30 21:35:11.365","540627","78","2","2","1","1","<p style=font-size: 90px;>&#x2191</p>","13","1011","vertical","ydk","1","2","4",-0.32432321,0.04633134,-0.13899593,"NULL","1",0.37065455,1
"611","2023-01-30 21:35:14.366","540627","79","5","4","2","4","<p style=font-size: 90px;>&#x2192</p>","13","1200","horizontal","ydk","2","4","5",-0.09266412,0.04633134,-0.0463323,"NULL","5",0.13899546,1
"612","2023-01-30 21:35:17.461","540627","80","4","4","2","4","<p style=font-size: 90px;>&#x2192</p>","22","1293","horizontal","ydk","2","4","6",0.41698588,-0.37065503,0.09266316,"NULL","1",-0.78764091,1
"613","2023-01-30 21:35:20.749","540627","81","3","4","2","4","<p style=font-size: 90px;>&#x2192</p>","15","1497","horizontal","ydk","2","4","7",0.4633177,-0.0463323,0.32432225,"NULL","0",-0.50965,1
"614","2023-01-30 21:35:26.141","540627","82","5","1","2","2","<p style=font-size: 90px;>&#x2193</p>","7","3610","vertical","ydk","2","1","24",-4.8e-07,0.32432225,-4.8e-07,"NULL","5",0.32432273,1
"615","2023-01-30 21:35:28.873","540627","83","3","4","1","3","<p style=font-size: 90px;>&#x2190</p>","16","955","horizontal","ydk","1","4","8",-0.09266412,-0.09266412,0.27799043,"NULL","0",0,0
"616","2023-01-30 21:35:31.850","540627","84","5","1","1","1","<p style=font-size: 90px;>&#x2191</p>","25","1193","vertical","ydk","1","1","14",0.37065407,-0.50965048,-0.46331866,"NULL","5",-0.88030455,0
"617","2023-01-30 21:35:34.737","540627","85","4","3","1","3","<p style=font-size: 90px;>&#x2190</p>","16","1091","horizontal","ydk","1","3","24",0.09266316,-0.09266412,-0.13899593,"NULL","0",-0.18532728,0
"618","2023-01-30 21:35:37.246","540627","86","4","3","2","4","<p style=font-size: 90px;>&#x2192</p>","18","736","horizontal","ydk","2","3","8",0.37065407,-0.18532775,-0.41698684,"NULL","0",-0.55598182,0
"619","2023-01-30 21:35:39.491","540627","87","3","4","1","3","<p style=font-size: 90px;>&#x2190</p>","15","440","horizontal","ydk","1","4","8",0.04633134,-0.0463323,-4.8e-07,"NULL","0",-0.09266364,0
"620","2023-01-30 21:35:42.369","540627","88","1","1","1","1","<p style=font-size: 90px;>&#x2191</p>","25","1083","vertical","ydk","1","1","6",0.27799043,-0.50965048,-0.23165957,"NULL","1",-0.78764091,0
"621","2023-01-30 21:35:44.537","540627","89","4","3","2","4","<p style=font-size: 90px;>&#x2192</p>","25","377","horizontal","ydk","2","3","16",0.4633177,-0.50965048,0.4633177,"NULL","0",-0.97296818,1
"622","2023-01-30 21:35:47.082","540627","90","2","2","2","2","<p style=font-size: 90px;>&#x2193</p>","25","773","vertical","ydk","2","2","1",0.32432225,-0.50965048,0.32432225,"NULL","1",-0.83397273,1
"623","2023-01-30 21:35:49.460","540627","91","5","1","1","1","<p style=font-size: 90px;>&#x2191</p>","16","582","vertical","ydk","1","1","24",-4.8e-07,-0.09266412,-0.18532775,"NULL","5",-0.09266364,1
"624","2023-01-30 21:35:52.323","540627","92","5","4","1","3","<p style=font-size: 90px;>&#x2190</p>","24","1083","horizontal","ydk","1","4","10",-0.13899593,-0.46331866,-0.18532775,"NULL","5",-0.32432273,1
